Acc_x,Acc_y,Acc_z,Gyro_x,Gyro_y,Gyro_z,Orient_x,Orient_y,Orient_z,0
0.0,0.0,0.0,0.0,0.0,0.0,0.0,0.0,0.0,10
0.0,0.0,0.0,0.0,0.0,0.0,0.0,0.0,0.0,20
1.7244237661361694,3.4338839054107666,8.899846076965332,0.4944954216480255,-0.38667771220207214,-0.5928447246551514,117.83934020996094,339.36517333984375,351.6259460449219,30
1.7244237661361694,3.4338839054107666,8.899846076965332,0.4944954216480255,-0.38667771220207214,-0.5928447246551514,117.83934020996094,339.36517333984375,351.6259460449219,40
1.7244237661361694,3.4338839054107666,8.899846076965332,0.4944954216480255,-0.38667771220207214,-0.5928447246551514,117.83934020996094,339.36517333984375,351.6259460449219,50
1.7244237661361694,3.4338839054107666,8.899846076965332,0.4944954216480255,-0.38667771220207214,-0.5928447246551514,117.83934020996094,339.36517333984375,351.6259460449219,60
1.7244237661361694,3.4338839054107666,8.899846076965332,0.4944954216480255,-0.38667771220207214,-0.5928447246551514,117.83934020996094,339.36517333984375,351.6259460449219,70
1.7244237661361694,3.4338839054107666,8.899846076965332,0.4944954216480255,-0.38667771220207214,-0.5928447246551514,117.83934020996094,339.36517333984375,351.6259460449219,80
1.7244237661361694,3.4338839054107666,8.899846076965332,0.4944954216480255,-0.38667771220207214,-0.5928447246551514,117.83934020996094,339.36517333984375,351.6259460449219,90
1.7244237661361694,3.4338839054107666,8.899846076965332,0.4944954216480255,-0.38667771220207214,-0.5928447246551514,117.83934020996094,339.36517333984375,351.6259460449219,100
1.7244237661361694,3.4338839054107666,8.899846076965332,0.4944954216480255,-0.38667771220207214,-0.5928447246551514,117.83934020996094,339.36517333984375,351.6259460449219,110
2.4007856845855713,2.1721394062042236,11.202469825744629,-0.08857546001672745,-0.36224308609962463,-1.99447500705719,129.42227172851563,347.26812744140625,347.25286865234375,120
2.4007856845855713,2.1721394062042236,11.202469825744629,-0.08857546001672745,-0.36224308609962463,-1.99447500705719,129.42227172851563,347.26812744140625,347.25286865234375,130
2.4007856845855713,2.1721394062042236,11.202469825744629,-0.08857546001672745,-0.36224308609962463,-1.99447500705719,129.42227172851563,347.26812744140625,347.25286865234375,140
2.4007856845855713,2.1721394062042236,11.202469825744629,-0.08857546001672745,-0.36224308609962463,-1.99447500705719,129.42227172851563,347.26812744140625,347.25286865234375,150
3.181295394897461,1.6843209266662598,9.5408935546875,0.0039706239476799965,-0.3029891550540924,-1.188132882118225,131.58180236816406,348.199951171875,345.8845520019531,160
2.6001031398773193,1.4550760984420776,8.713098526000977,0.24037547409534454,-0.4150829315185547,-1.3732250928878784,133.260986328125,348.4739990234375,345.628662109375,170
1.678335428237915,1.5867571830749512,8.160636901855469,0.2984076738357544,-0.6212499737739563,-1.5323554277420044,133.6749267578125,348.5428466796875,345.8881530761719,180
0.6637924313545227,1.9003976583480835,8.155848503112793,0.22876903414726257,-0.7330383062362671,-1.5891659259796143,134.1060333251953,348.3779296875,346.7685852050781,190
0.12629413604736328,2.2020668983459473,8.540117263793945,0.06994406878948212,-0.8026769161224365,-1.5027284622192383,135.06944274902344,348.0739440917969,347.9732971191406,200
-0.06404489278793335,2.255337953567505,8.884882926940918,-0.10567969083786011,-0.8860600590705872,-1.2983940839767456,135.05043029785156,347.810791015625,349.2322692871094,210
0.41958385705947876,1.942894697189331,8.956708908081055,-0.26083946228027344,-0.9294314980506897,-1.0418306589126587,135.07656860351563,347.7961730957031,350.0601501464844,220
0.973242998123169,1.5939397811889648,9.466673851013184,-0.4086688458919525,-0.8252789378166199,-0.7837401032447815,135.15789794921875,348.08221435546875,350.4996643066406,230
1.6717513799667358,1.4730325937271118,9.789292335510254,-0.5815436840057373,-0.5949827432632446,-0.5717698931694031,135.21868896484375,348.4659118652344,350.4784240722656,240
2.2475569248199463,1.6136919260025024,10.013150215148926,-0.7067710757255554,-0.28038713335990906,-0.4156937897205353,135.84165954589844,348.7565612792969,350.123779296875,250
2.407968282699585,1.4664485454559326,10.310030937194824,-0.6914994716644287,0.025045474991202354,-0.3271183371543884,136.43394470214844,349.13751220703125,349.747802734375,260
1.8387469053268433,1.2892776727676392,10.412981986999512,-0.5797111392021179,0.14294247329235077,-0.289244681596756,137.0177459716797,349.57586669921875,349.7747497558594,270
1.4221558570861816,1.4688427448272705,9.68155288696289,-0.3897320330142975,0.10842858254909515,-0.2370157092809677,137.4728546142578,349.77117919921875,349.9695739746094,280
1.3682862520217896,1.7549498081207275,8.676587104797363,-0.2174680233001709,0.05742133408784866,-0.1414152979850769,137.1379852294922,349.6699523925781,350.07025146484375,290
1.6430208683013916,1.5101426839828491,8.620922088623047,-0.14508049190044403,0.03878994286060333,-0.0507018156349659,137.14002990722656,349.7233581542969,349.98876953125,300
1.944091796875,1.400607943534851,8.511985778808594,-0.13866640627384186,-0.04764748737215996,-0.0024434609804302454,137.14781188964844,349.8321838378906,349.7184143066406,310
2.161964178085327,1.5029600858688354,8.562862396240234,-0.1667662113904953,-0.17379115521907806,0.039706241339445114,137.14535522460938,349.8791809082031,349.3443908691406,320
2.169146776199341,1.5759832859039307,8.728062629699707,-0.21991148591041565,-0.2177734673023224,0.09193521738052368,137.14085388183594,349.8955383300781,349.020263671875,330
2.2254104614257813,1.4640543460845947,8.87291145324707,-0.2678644061088562,-0.21502456068992615,0.12980885803699493,137.60714721679688,349.9950866699219,348.7106018066406,340
2.2679076194763184,1.3563152551651,8.76577091217041,-0.2736676335334778,-0.23671028017997742,0.13988813757896423,137.62452697753906,350.1402587890625,348.3922119140625,350
360
2.387617588043213,1.2084733247756958,8.681973457336426,-0.19425514340400696,-0.30024027824401855,0.1563815027475357,138.41107177734375,350.50665283203125,347.7081298828125,370
2.404376983642578,1.139639973640442,8.81784439086914,-0.15332718193531036,-0.3790418803691864,0.16737708449363708,138.4467315673828,350.74359130859375,347.41119384765625,380
2.4426841735839844,1.013944387435913,8.97885513305664,-0.12858712673187256,-0.49693888425827026,0.18814650177955627,138.4938201904297,351.05035400390625,347.1430969238281,390
2.4426841735839844,1.013944387435913,8.97885513305664,-0.12858712673187256,-0.49693888425827026,0.18814650177955627,138.4938201904297,351.05035400390625,347.1430969238281,400
2.516904592514038,0.7948749661445618,9.370306968688965,-0.11514809727668762,-0.6285803318023682,0.21899518370628357,138.56175231933594,351.49664306640625,346.9129943847656,410
2.762908697128296,0.889445960521698,9.140463829040527,-0.0910189226269722,-0.788016140460968,0.30482175946235657,138.6776885986328,352.2139892578125,346.2867431640625,420
2.779668092727661,0.9097966551780701,8.863933563232422,-0.0806342139840126,-0.7754934430122375,0.33597588539123535,138.71932983398438,352.4312744140625,345.9166259765625,430
2.9502551555633545,0.8104372620582581,8.939949035644531,-0.08857546001672745,-0.7583891749382019,0.39767327904701233,138.77191162109375,352.6966552734375,345.49322509765625,440
3.290231704711914,0.7757213711738586,9.315838813781738,-0.11453723162412643,-0.759916365146637,0.45295658707618713,138.83554077148438,352.99029541015625,344.9707946777344,450
3.296217203140259,0.767341673374176,9.396044731140137,-0.16401731967926025,-0.817948579788208,0.5100724697113037,138.8251495361328,353.2629699707031,344.5155334472656,460
3.228580951690674,0.6661866307258606,9.366117477416992,-0.1963931769132614,-0.8683449625968933,0.5632177591323853,138.88406372070313,353.5633850097656,344.1451721191406,470
3.2752678394317627,0.28311434388160706,9.212289810180664,-0.1918116807937622,-0.835969090461731,0.6117815375328064,138.9720458984375,354.0518798828125,343.7620849609375,480
2.8826189041137695,-0.3082534670829773,9.402029991149902,-0.16371189057826996,-0.7987062931060791,0.6478226184844971,138.28768920898438,354.8468017578125,343.67864990234375,490
2.406172752380371,-0.6476315855979919,9.012971878051758,-0.13897185027599335,-0.8045095205307007,0.6927211880683899,138.3914337158203,355.7388916015625,343.8135986328125,500
2.2840683460235596,-0.45848962664604187,9.012373924255371,-0.08888089656829834,-0.8032878041267395,0.8539896011352539,138.45999145507813,356.43145751953125,344.00634765625,510
2.807201385498047,-0.2992752194404602,9.197924613952637,0.010995574295520782,-0.8851437568664551,1.1545352935791016,137.58160400390625,356.9723815917969,343.9071960449219,520
3.3877954483032227,-0.5752069354057312,8.863933563232422,0.15363261103630066,-1.1001683473587036,1.4850133657455444,137.67999267578125,357.6204528808594,343.4252624511719,530
3.9833531379699707,-0.7781155705451965,8.383895874023438,0.31520646810531616,-1.2776246070861816,1.730581283569336,136.76124572753906,358.3221435546875,342.5611267089844,540
4.43705415725708,-0.812831461429596,8.288725852966309,0.44837507605552673,-1.3148874044418335,1.8542814254760742,135.62144470214844,358.97991943359375,341.49908447265625,550
4.398148536682129,-0.7793126702308655,8.4108304977417,0.5177083015441895,-1.3081679344177246,1.8527542352676392,133.9549560546875,359.55474853515625,340.58660888671875,560
3.3255462646484375,-1.467047095298767,8.628104209899902,0.5488623976707458,-1.31916344165802,1.7760907411575317,132.65325927734375,0.49148938059806824,340.4230651855469,570
2.141613483428955,-2.7748796939849854,8.946533203125,0.5916230082511902,-1.2870930433273315,1.786780834197998,130.28573608398438,2.1364188194274902,341.021240234375,580
2.141613483428955,-2.7748796939849854,8.946533203125,0.5916230082511902,-1.2870930433273315,1.786780834197998,130.28573608398438,2.1364188194274902,341.021240234375,590
1.6765397787094116,-3.6128504276275635,9.182960510253906,0.6747006773948669,-1.2052371501922607,2.1175644397735596,127.69879913330078,4.12834358215332,341.8778381347656,600
2.6390087604522705,-2.917334794998169,7.818265438079834,1.1496484279632568,-1.1539244651794434,3.391523838043213,121.80863952636719,7.168577194213867,342.3416442871094,610
2.6390087604522705,-2.917334794998169,7.818265438079834,1.1496484279632568,-1.1539244651794434,3.391523838043213,121.80863952636719,7.168577194213867,342.3416442871094,620
3.910329818725586,-2.999934673309326,8.814253807067871,1.3643674850463867,-1.217454433441162,3.780034065246582,118.42987823486328,9.511979103088379,341.0234069824219,630
3.405751943588257,-4.271255970001221,8.511985778808594,1.4535537958145142,-1.3900238275527954,3.9654316902160645,115.46650695800781,11.186431884765625,340.7373046875,640
3.755903959274292,-4.659116744995117,8.262989044189453,1.5729780197143555,-2.0247128009796143,4.397618770599365,109.42729949951172,351.12432861328125,342.2493896484375,650
5.327697277069092,-3.776254653930664,8.218695640563965,1.5729780197143555,-2.0247128009796143,4.397618770599365,109.1016616821289,351.02081298828125,340.2509765625,660
6.798934459686279,-2.298433542251587,7.1885905265808105,1.996002197265625,-1.7412713766098022,5.275432109832764,105.15205383300781,350.9811706542969,338.77337646484375,670
7.965508937835693,-0.9403226971626282,5.3342814445495605,1.996002197265625,-1.7412713766098022,5.275432109832764,102.09916687011719,350.9811706542969,338.77337646484375,680
9.00160026550293,0.12270283699035645,4.613626480102539,2.347555160522461,-1.785253643989563,5.313000679016113,94.25594329833984,350.89031982421875,336.003173828125,690
9.00160026550293,0.12270283699035645,4.613626480102539,2.347555160522461,-1.785253643989563,5.313000679016113,94.25594329833984,350.89031982421875,336.003173828125,700
9.799467086791992,-0.08738835901021957,6.242282390594482,2.30051851272583,-1.8664987087249756,4.895168781280518,88.13483428955078,350.8839416503906,332.79632568359375,710
720
9.516353607177734,-0.943913996219635,7.556699275970459,1.9453003406524658,-1.8878790140151978,4.605007648468018,84.43183898925781,351.12255859375,331.1899108886719,730
9.21288776397705,-1.5640122890472412,9.008183479309082,1.540907621383667,-1.7663168907165527,4.3789873123168945,82.15480041503906,351.5215148925781,329.8973693847656,740
8.898649215698242,-2.1308395862579346,9.457097053527832,1.2721269130706787,-1.598023533821106,4.222911357879639,78.9051513671875,352.15704345703125,328.5096740722656,750
8.959102630615234,-2.228403329849243,8.478466987609863,1.2293663024902344,-1.4608842134475708,4.112650394439697,76.86124420166016,352.7501525878906,327.4070129394531,760
9.593565940856934,-1.6861165761947632,7.010821342468262,1.4019356966018677,-1.2693779468536377,4.019493103027344,74.4085922241211,353.3622741699219,326.27862548828125,770
10.102932929992676,-0.871489405632019,5.884349346160889,1.7363845109939575,-1.0366383790969849,3.869220495223999,72.22135162353516,353.7362365722656,325.440673828125,780
10.45966911315918,-0.5512649416923523,5.1798553466796875,2.088853597640991,-0.9896016716957092,3.703981399536133,69.14183807373047,354.0098571777344,324.3747253417969,790
10.914566993713379,-0.7374141216278076,4.948216438293457,2.3014347553253174,-1.2803735733032227,3.6172385215759277,66.46393585205078,354.1638488769531,323.26068115234375,800
10.914566993713379,-0.7374141216278076,4.948216438293457,2.3014347553253174,-1.2803735733032227,3.6172385215759277,66.46393585205078,354.1638488769531,323.26068115234375,810
11.507730484008789,-0.8601169586181641,5.4426188468933105,2.3099868297576904,-2.0958786010742188,3.3823609352111816,61.32804870605469,354.4635314941406,320.62957763671875,820
11.507730484008789,-0.8601169586181641,5.4426188468933105,2.3099868297576904,-2.0958786010742188,3.3823609352111816,61.32804870605469,354.4635314941406,320.62957763671875,830
12.965200424194336,-0.8140285611152649,5.804741859436035,2.0592267513275146,-2.281276226043701,3.330131769180298,56.68840789794922,355.0074768066406,317.8072814941406,840
12.965200424194336,-0.8140285611152649,5.804741859436035,2.0592267513275146,-2.281276226043701,3.330131769180298,56.68840789794922,355.0074768066406,317.8072814941406,850
15.30373764038086,0.5542576909065247,1.6388310194015503,1.7327193021774292,-2.1374175548553467,2.808147430419922,54.819705963134766,355.98321533203125,314.4614562988281,860
15.30373764038086,0.5542576909065247,1.6388310194015503,1.7327193021774292,-2.1374175548553467,2.808147430419922,53.082481384277344,355.98321533203125,314.4614562988281,870
13.514071464538574,0.4321534037590027,0.1346738487482071,1.4245377779006958,-1.6954565048217773,2.1676552295684814,52.67702102661133,356.3358459472656,313.19696044921875,880
10.699089050292969,-1.7980455160140991,6.140528678894043,0.33505958318710327,-0.9648616313934326,1.5167783498764038,50.31321716308594,357.1480712890625,311.89111328125,890
9.782708168029785,-2.191891670227051,6.645705223083496,0.33505958318710327,-0.9648616313934326,1.5167783498764038,50.31321716308594,357.1480712890625,311.89111328125,900
9.782708168029785,-2.191891670227051,6.645705223083496,0.3222314119338989,-0.988990843296051,1.5680910348892212,50.285011291503906,357.6874084472656,311.2679748535156,910
8.113350868225098,-3.153762102127075,7.292738437652588,0.8472700715065002,-0.5623014569282532,1.1652255058288574,47.430686950683594,358.2513122558594,310.3963317871094,920
8.113350868225098,-3.153762102127075,7.292738437652588,0.8472700715065002,-0.5623014569282532,1.1652255058288574,47.430686950683594,358.2513122558594,310.3963317871094,930
7.511209487915039,-2.4600422382354736,5.097854137420654,1.150259256362915,-0.6356052756309509,1.2479976415634155,46.12306213378906,358.5074462890625,309.4485168457031,940
7.763797760009766,-2.516904592514038,5.824494361877441,1.0870347023010254,-1.2131783962249756,1.616654872894287,44.098907470703125,358.855712890625,308.64959716796875,950
8.564059257507324,-1.6508020162582397,6.299743175506592,0.9334021210670471,-1.4410310983657837,1.881770372390747,43.28464889526367,359.3968200683594,307.732666015625,960
8.564059257507324,-1.6508020162582397,6.299743175506592,0.9334021210670471,-1.4410310983657837,1.881770372390747,43.28464889526367,359.3968200683594,307.732666015625,970
7.313088893890381,-1.6262614727020264,4.5854949951171875,0.9092729091644287,-1.6297885179519653,1.9058995246887207,41.93492126464844,0.04024689272046089,306.6006774902344,980
5.771821975708008,-3.602674961090088,4.264671802520752,0.9098837971687317,-1.595579981803894,1.7748689651489258,40.83802032470703,0.30464836955070496,306.1319885253906,990
5.95677375793457,-3.421314239501953,3.782240152359009,0.988379955291748,-1.0729848146438599,1.3164145946502686,39.03228759765625,1.0749555826187134,304.498779296875,1000
5.95677375793457,-3.421314239501953,3.782240152359009,0.988379955291748,-1.0729848146438599,1.3164145946502686,39.03228759765625,1.0749555826187134,304.498779296875,1010
8.753201484680176,-2.4588451385498047,5.015852451324463,1.091310739517212,-0.7519751191139221,1.5155566930770874,37.09716033935547,1.7769721746444702,303.54388427734375,1020
8.753201484680176,-2.4588451385498047,5.015852451324463,1.091310739517212,-0.7519751191139221,1.5155566930770874,37.09716033935547,1.7769721746444702,303.54388427734375,1030
9.396642684936523,-2.936488389968872,4.057573318481445,1.10139000415802,-0.9828822016716003,1.5845844745635986,35.28397750854492,2.505101442337036,302.6897277832031,1040
9.239224433898926,-3.0633809566497803,4.310760021209717,1.0739010572433472,-1.1441506147384644,1.5094480514526367,34.19388961791992,2.9431838989257813,302.003173828125,1050
8.4916353225708,-3.4727895259857178,5.045181751251221,0.9153815507888794,-1.11391282081604,1.4401148557662964,34.2371940612793,3.3496086597442627,301.4343566894531,1060
7.8098859786987305,-3.7690720558166504,4.99550199508667,0.7559457421302795,-0.932485818862915,1.4144585132598877,33.234535217285156,3.998436689376831,300.74847412109375,1070
1080
6.590638637542725,-3.8821980953216553,3.975571870803833,0.5589417219161987,-0.7473936080932617,1.2305880784988403,32.18968200683594,4.81825065612793,300.0316467285156,1090
6.590638637542725,-3.8821980953216553,3.975571870803833,0.5589417219161987,-0.7473936080932617,1.2305880784988403,32.18968200683594,4.81825065612793,300.0316467285156,1100
6.2865753173828125,-4.217984676361084,3.6308069229125977,0.46150869131088257,-0.6230825781822205,1.1074986457824707,31.595836639404297,5.202409744262695,299.7398376464844,1110
7.0359601974487305,-4.296993732452393,4.001309394836426,0.4297437071800232,-0.7318165898323059,1.0903944969177246,30.980754852294922,5.669384479522705,299.3221130371094,1120
7.0359601974487305,-4.296993732452393,4.001309394836426,0.4297437071800232,-0.7318165898323059,1.0903944969177246,30.980754852294922,5.669384479522705,299.3221130371094,1130
3.4302923679351807,-3.576338768005371,-0.29209262132644653,0.3839288055896759,-1.0002918243408203,1.0870347023010254,30.650949478149414,6.34029483795166,298.4797668457031,1140
11.244966506958008,-4.444236755371094,8.350377082824707,0.10262536257505417,-1.6300939321517944,1.4242323637008667,27.865081787109375,21.342073440551758,300.64373779296875,1150
9.860519409179688,-2.896385431289673,0.5590460896492004,0.32650747895240784,-2.596177339553833,1.2861768007278442,28.00341033935547,21.285476684570313,296.6861877441406,1160
9.460089683532715,-4.711789131164551,2.9963433742523193,0.6139195561408997,-3.101057529449463,0.7974845767021179,27.604761123657227,21.41655921936035,295.5172119140625,1170
10.398616790771484,-6.078279495239258,6.0639142990112305,0.04337143152952194,-3.0103440284729004,0.8552113175392151,26.757843017578125,22.361658096313477,295.77618408203125,1180
10.253767013549805,-4.751293182373047,2.076969861984253,0.04337143152952194,-3.0103440284729004,0.8552113175392151,27.1683292388916,22.69519805908203,294.31304931640625,1190
10.253767013549805,-4.751293182373047,2.076969861984253,-0.32100969552993774,-3.057380437850952,0.8365799784660339,26.89524269104004,22.69519805908203,294.31304931640625,1200
7.861959934234619,-3.7445313930511475,-0.7308300733566284,-0.1463022232055664,-2.6844472885131836,0.6627888083457947,27.023496627807617,23.178546905517578,291.5997314453125,1210
8.517372131347656,-5.683835029602051,5.0912699699401855,-0.3194825351238251,-2.328007459640503,1.0610729455947876,25.748592376708984,27.38652801513672,293.19500732421875,1220
9.257181167602539,-5.245696067810059,2.494159698486328,-0.0607810914516449,-2.6813929080963135,1.1530081033706665,24.809579849243164,27.70436668395996,291.8640441894531,1230
9.257181167602539,-5.245696067810059,2.494159698486328,-0.0607810914516449,-2.6813929080963135,1.1530081033706665,24.809579849243164,27.70436668395996,291.8640441894531,1240
12.542025566101074,-5.303755283355713,1.8405425548553467,-0.0607810914516449,-2.6813929080963135,1.1530081033706665,25.42424964904785,26.975038528442383,289.8677978515625,1250
11.63342571258545,-6.501454830169678,2.0488381385803223,-0.04459316283464432,-1.7443257570266724,0.6010913848876953,25.136289596557617,27.13844871520996,287.62384033203125,1260
10.450092315673828,-6.600215435028076,1.6753426790237427,-0.2672535479068756,-1.158505916595459,0.6075055003166199,25.452791213989258,27.830163955688477,286.8165283203125,1270
8.876502990722656,-6.602011203765869,1.546055793762207,-0.2672535479068756,-1.158505916595459,0.6075055003166199,25.199886322021484,28.789400100708008,286.41461181640625,1280
6.973711013793945,-6.779181957244873,1.3551181554794312,-0.11911872029304504,-0.4703662395477295,0.6148358583450317,25.0404052734375,29.983356475830078,286.22979736328125,1290
5.965752124786377,-7.283161640167236,1.4089876413345337,-0.11911872029304504,-0.4703662395477295,0.6148358583450317,24.923086166381836,31.890729904174805,285.81097412109375,1300
8.67718505859375,-6.770204067230225,2.009333848953247,0.01618792861700058,-0.9233227968215942,0.7641924023628235,24.640396118164063,32.3827018737793,285.5811767578125,1310
6.576871871948242,-6.066906929016113,1.2635399103164673,0.06536258012056351,-0.9990701079368591,0.9651671051979065,24.593948364257813,33.530059814453125,285.02117919921875,1320
8.38569164276123,-4.460397720336914,3.226186752319336,0.1459967941045761,-1.0583239793777466,0.9905179738998413,23.90462303161621,32.85013961791992,285.63763427734375,1330
8.292916297912598,-5.166687488555908,2.8329391479492188,0.13927727937698364,-1.074512004852295,1.0476338863372803,23.536724090576172,32.817935943603516,285.8133850097656,1340
8.292916297912598,-5.166687488555908,2.8329391479492188,0.13927727937698364,-1.074512004852295,1.0476338863372803,23.536724090576172,32.817935943603516,285.8133850097656,1350
8.553285598754883,-5.440224647521973,2.12485408782959,-0.21471913158893585,-0.8103127479553223,0.9743300676345825,23.184484481811523,32.01704025268555,285.72125244140625,1360
8.553285598754883,-5.440224647521973,2.12485408782959,-0.21471913158893585,-0.8103127479553223,0.9743300676345825,23.184484481811523,32.01704025268555,285.72125244140625,1370
6.4817023277282715,-6.578667640686035,1.4496891498565674,-0.39156460762023926,0.01924225501716137,0.7657195925712585,23.382226943969727,33.993804931640625,285.561767578125,1380
4.270657062530518,-6.8360443115234375,0.0628477931022644,-0.3381139039993286,0.166460782289505,0.8463537693023682,23.61787223815918,36.12483215332031,284.88458251953125,1390
4.270657062530518,-6.8360443115234375,0.0628477931022644,-0.3381139039993286,0.166460782289505,0.8463537693023682,23.61787223815918,36.12483215332031,284.88458251953125,1400
7.840412139892578,-4.748898983001709,5.186439514160156,-0.12950342893600464,0.3384193480014801,1.5308283567428589,21.29805564880371,36.18511199951172,287.23297119140625,1410
10.120888710021973,-5.758055210113525,3.3686418533325195,-0.19883663952350616,0.10415252298116684,1.892460584640503,21.29172706604004,36.23820495605469,287.519287109375,1420
10.522516250610352,-6.254851818084717,2.0219032764434814,-0.15515977144241333,0.15943582355976105,1.842369556427002,21.366191864013672,35.039363861083984,286.60009765625,1430
1440
8.367734909057617,-8.079233169555664,1.7753005027770996,-0.1615738570690155,0.6377432942390442,1.6957619190216064,21.485700607299805,36.33712387084961,286.49530029296875,1450
7.399878978729248,-8.468291282653809,1.5831658840179443,-0.24617868661880493,0.8762862086296082,1.5225815773010254,21.54779624938965,37.5627555847168,286.1693115234375,1460
8.179790496826172,-8.02536392211914,1.669357180595398,-0.23426681756973267,0.9419541954994202,1.4596625566482544,21.737783432006836,38.46484375,285.899658203125,1470
8.216301918029785,-7.934982776641846,1.9147628545761108,-0.15302173793315887,1.0018190145492554,1.3854423761367798,21.86260414123535,38.98902130126953,285.7196350097656,1480
8.283339500427246,-7.975684642791748,1.6879122257232666,-0.10293079167604446,0.9752463698387146,1.214094638824463,21.8579044342041,39.500328063964844,285.40240478515625,1490
8.283339500427246,-7.975684642791748,1.6879122257232666,-0.10293079167604446,0.9752463698387146,1.214094638824463,21.8579044342041,39.500328063964844,285.40240478515625,1500
7.999626636505127,-7.342418193817139,1.3102269172668457,-0.1719585657119751,0.960280179977417,1.0971139669418335,22.092863082885742,39.65275573730469,284.9541015625,1510
7.657854080200195,-7.408258438110352,1.1971008777618408,-0.3778201639652252,1.1606439352035522,0.9492846131324768,22.99638557434082,40.276668548583984,283.91021728515625,1520
7.657854080200195,-7.408258438110352,1.1971008777618408,-0.3778201639652252,1.1606439352035522,0.9492846131324768,22.99638557434082,40.276668548583984,283.91021728515625,1530
6.928221225738525,-7.149684906005859,0.8248024582862854,-0.39767327904701233,1.084285855293274,0.7840455174446106,23.679550170898438,40.980098724365234,282.55322265625,1540
6.928221225738525,-7.149684906005859,0.8248024582862854,-0.39767327904701233,1.084285855293274,0.7840455174446106,23.679550170898438,40.980098724365234,282.55322265625,1550
6.577470779418945,-7.258022308349609,1.0444705486297607,-0.36621370911598206,0.8924741148948669,0.7470881938934326,23.810205459594727,41.841583251953125,282.4469909667969,1560
6.312911510467529,-7.3023152351379395,1.449090600013733,-0.2025018334388733,0.7061602473258972,0.6939429044723511,23.667146682739258,42.99788284301758,282.446044921875,1570
6.312911510467529,-7.3023152351379395,1.449090600013733,-0.2025018334388733,0.7061602473258972,0.6939429044723511,23.667146682739258,42.99788284301758,282.446044921875,1580
6.586448669433594,-7.539939880371094,1.953070044517517,-0.15913039445877075,0.5296201705932617,0.8396342992782593,24.214204788208008,43.78608703613281,282.698486328125,1590
4.25629186630249,-9.008782386779785,-2.1805191040039063,-0.19456058740615845,0.5067127346992493,0.9199630618095398,25.733619689941406,46.362220764160156,280.4190673828125,1600
6.435015678405762,-5.669469833374023,3.801992416381836,-0.42180246114730835,0.4453207552433014,1.1844676733016968,24.831127166748047,45.89418411254883,282.3875427246094,1610
1.931522250175476,-6.655282020568848,1.678335428237915,-0.7736608386039734,0.4358523488044739,1.6102408170700073,24.328357696533203,47.80792999267578,283.2918701171875,1620
1.931522250175476,-6.655282020568848,1.678335428237915,-0.7736608386039734,0.4358523488044739,1.6102408170700073,24.328357696533203,47.80792999267578,283.2918701171875,1630
6.525396823883057,-7.056909561157227,2.161964178085327,-1.379333734512329,0.5983424782752991,2.3768765926361084,23.093029022216797,48.69112777709961,286.2508544921875,1640
6.525396823883057,-7.056909561157227,2.161964178085327,-1.379333734512329,0.5983424782752991,2.3768765926361084,23.093029022216797,48.69112777709961,286.2508544921875,1650
7.326257228851318,-4.768052577972412,1.2084733247756958,-1.6829338073730469,0.9624181985855103,2.499049663543701,25.483198165893555,48.300621032714844,285.4656066894531,1660
6.59004020690918,-11.91773796081543,0.8684966564178467,-1.8753563165664673,1.6768250465393066,2.043344259262085,31.3203067779541,50.796566009521484,282.98065185546875,1670
5.591658115386963,-11.48378849029541,0.40462008118629456,-1.8286250829696655,1.787697196006775,1.7189748287200928,33.33131408691406,52.99372482299805,282.1768798828125,1680
5.591658115386963,-11.48378849029541,0.40462008118629456,-1.8286250829696655,1.787697196006775,1.7189748287200928,33.33131408691406,52.99372482299805,282.1768798828125,1690
3.81994891166687,-12.181697845458984,1.833359956741333,-1.0308351516723633,1.5812246799468994,1.0268645286560059,34.49449920654297,56.34973907470703,283.2708740234375,1700
3.81994891166687,-12.181697845458984,1.833359956741333,-1.0308351516723633,1.5812246799468994,1.0268645286560059,34.49449920654297,56.34973907470703,283.2708740234375,1710
4.7602715492248535,-11.343728065490723,1.7944542169570923,-0.45875978469848633,1.1872166395187378,0.7709119319915771,33.60715866088867,57.945556640625,284.5726623535156,1720
5.143343925476074,-11.293449401855469,1.4215573072433472,-0.07116580009460449,0.6038402915000916,0.6939429044723511,33.91654968261719,58.21940612792969,284.20599365234375,1730
5.4659624099731445,-10.61888313293457,1.1204863786697388,0.18906278908252716,0.21105393767356873,0.5577199459075928,33.935523986816406,58.80720520019531,284.27252197265625,1740
5.496488571166992,-10.920552253723145,1.499967336654663,0.3384193480014801,0.10415252298116684,0.35582900047302246,33.64020538330078,58.984371185302734,284.16265869140625,1750
4.786009311676025,-11.417947769165039,1.3838485479354858,0.3197879493236542,0.07024950534105301,0.17256943881511688,33.36418151855469,59.78776550292969,284.64788818359375,1760
5.632957935333252,-7.683591842651367,0.8816647529602051,0.12767083942890167,0.038179077208042145,-0.247094988822937,34.67124938964844,58.36565399169922,283.4306945800781,1770
2.6360161304473877,-6.175843238830566,1.6376339197158813,-0.06627888232469559,0.01466076634824276,-0.521984338760376,33.74443054199219,58.6498908996582,284.2244873046875,1780
1.9309237003326416,-6.721122741699219,1.8956091403961182,-0.3078760802745819,-0.16249015927314758,-0.4795292317867279,32.695838928222656,59.439449310302734,285.2843017578125,1790
1800
2.3235726356506348,-7.3454108238220215,0.5530605912208557,-0.4398229718208313,-0.7382306456565857,-0.19914206862449646,33.18244171142578,60.60055923461914,285.09326171875,1810
2.3235726356506348,-7.3454108238220215,0.5530605912208557,-0.4398229718208313,-0.7382306456565857,-0.19914206862449646,33.18244171142578,60.60055923461914,285.09326171875,1820
2.652775526046753,-10.769119262695313,6.724115371704102,-1.8429805040359497,-1.4086552858352661,1.444696307182312,29.902236938476563,63.542842864990234,290.4794006347656,1830
3.354276657104492,-10.435128211975098,1.856104850769043,-2.5781567096710205,-1.3277156352996826,1.9840903282165527,30.40114402770996,65.0382308959961,290.00421142578125,1840
4.243722438812256,-10.477624893188477,-0.11671733111143112,-1.7464637756347656,-1.223868489265442,1.977981686592102,31.170486450195313,65.22746276855469,289.1011962890625,1850
3.4093432426452637,-10.238204956054688,-0.16160862147808075,-0.08399397134780884,0.03237585723400116,1.4074335098266602,31.233556747436523,65.70854949951172,289.5543212890625,1860
3.1250317096710205,-9.79527759552002,0.8032546639442444,0.40775254368782043,1.2394455671310425,0.7993171811103821,30.0653076171875,65.9006576538086,290.10491943359375,1870
3.4781765937805176,-9.947908401489258,1.5592238903045654,0.021991148591041565,0.7348709106445313,0.3390302062034607,29.92193603515625,66.12542724609375,289.81658935546875,1880
3.5673606395721436,-9.47146224975586,0.7422025203704834,-0.14844025671482086,-0.10201449692249298,0.014049900695681572,31.369850158691406,66.27690887451172,288.311767578125,1890
3.139396905899048,-9.658807754516602,0.8445546627044678,0.0861319974064827,-0.4499022662639618,-0.052228979766368866,31.123149871826172,66.69942474365234,288.06451416015625,1900
3.1872811317443848,-9.48762321472168,0.8930372595787048,0.197004035115242,-0.4034765064716339,-0.038179077208042145,31.49915313720703,67.10723114013672,288.0443115234375,1910
3.1872811317443848,-9.48762321472168,0.8930372595787048,0.197004035115242,-0.4034765064716339,-0.038179077208042145,31.49915313720703,67.10723114013672,288.0443115234375,1920
2.940678119659424,-9.253589630126953,0.7368155717849731,0.1466076523065567,-0.34758231043815613,-0.038179077208042145,31.42136573791504,67.53353118896484,287.746826171875,1930
2.713827610015869,-9.275735855102539,1.2192472219467163,0.14385876059532166,-0.3527746796607971,-0.027183502912521362,31.054828643798828,68.0086898803711,288.2406005859375,1940
2.7503392696380615,-9.40023422241211,1.1593921184539795,0.21991148591041565,-0.4147774875164032,-0.01466076634824276,30.204206466674805,68.42603302001953,288.6939697265625,1950
2.761711597442627,-9.552266120910645,1.2348095178604126,0.26542094349861145,-0.5238169431686401,-0.013744467869400978,29.851228713989258,68.81517028808594,289.1561279296875,1960
3.0160956382751465,-9.773730278015137,0.9642647504806519,0.23884831368923187,-0.5155702829360962,-0.008246680721640587,29.28557586669922,69.01932525634766,289.5373840332031,1970
3.0160956382751465,-9.773730278015137,0.9642647504806519,0.1560760736465454,-0.43799036741256714,-0.015271631069481373,29.54069709777832,69.35491943359375,289.2851867675781,1980
3.2207999229431152,-10.211270332336426,1.0977414846420288,0.021074850112199783,-0.16401731967926025,-0.02932153269648552,29.336820602416992,69.76943969726563,289.5741882324219,1990
3.2207999229431152,-10.211270332336426,1.0977414846420288,0.021074850112199783,-0.16401731967926025,-0.02932153269648552,29.336820602416992,69.76943969726563,289.5741882324219,2000
2.9233202934265137,-9.601945877075195,1.138442873954773,-0.08643743395805359,-0.11178833991289139,-0.05650503560900688,29.17314910888672,70.20133972167969,289.4807434082031,2010
2.9233202934265137,-9.601945877075195,1.138442873954773,-0.08643743395805359,-0.11178833991289139,-0.05650503560900688,29.17314910888672,70.20133972167969,289.4807434082031,2020
2.7730841636657715,-9.603142738342285,1.2838906049728394,0.07513642311096191,-0.15790866315364838,-0.04337143152952194,27.90870475769043,70.5684585571289,290.46319580078125,2030
2.7730841636657715,-9.603142738342285,1.2838906049728394,0.07513642311096191,-0.15790866315364838,-0.04337143152952194,27.90870475769043,70.5684585571289,290.46319580078125,2040
2.6132712364196777,-7.860164165496826,0.9870096445083618,0.07666359096765518,-0.14355333149433136,-0.036041051149368286,27.83871841430664,70.53944396972656,290.5395202636719,2050
2.2577321529388428,-6.376357555389404,1.3431471586227417,0.0659734457731247,-0.13347405195236206,-0.04398229718208313,27.12416648864746,70.35355377197266,291.3330078125,2060
3.157952070236206,-4.134786128997803,1.3874398469924927,-0.07238753139972687,-0.13927727937698364,-0.06444628536701202,26.927894592285156,70.33110046386719,291.18353271484375,2070
2.741959571838379,-5.312135219573975,0.5578489899635315,-0.2070833146572113,-0.13988813757896423,-0.009468411095440388,27.507389068603516,68.82654571533203,290.3594970703125,2080
2.6348190307617188,-5.617395877838135,1.349731206893921,0.07635815441608429,-0.01160643994808197,0.0039706239476799965,26.761734008789063,67.92296600341797,291.1298828125,2090
2.6348190307617188,-5.617395877838135,1.349731206893921,0.07635815441608429,-0.01160643994808197,0.0039706239476799965,26.761734008789063,67.92296600341797,291.1298828125,2100
2.6186580657958984,-5.298966884613037,0.8134300112724304,0.23060162365436554,-0.029932396486401558,0.023518312722444534,26.07311248779297,67.87873077392578,291.5423278808594,2110
2.2146365642547607,-6.787561893463135,0.8206126093864441,0.10506882518529892,-0.23487769067287445,-0.016493361443281174,26.448017120361328,67.81047058105469,290.7220458984375,2120
1.854907751083374,-16.779163360595703,1.4000093936920166,-0.2174680233001709,-0.02229658141732216,-0.12461651116609573,23.914207458496094,71.96893310546875,294.026123046875,2130
3.1980550289154053,-16.62892723083496,1.072602391242981,-0.2174680233001709,-0.02229658141732216,-0.12461651116609573,24.391725540161133,73.14413452148438,293.6203308105469,2140
3.1980550289154053,-16.62892723083496,1.072602391242981,-0.1514945775270462,0.19853121042251587,0.038179077208042145,24.014131546020508,73.14413452148438,293.6203308105469,2150
2160
2.850895643234253,-10.887033462524414,0.013168109580874443,0.12247848510742188,-0.24984388053417206,1.024726390838623,29.635061264038086,74.34552001953125,287.08734130859375,2170
2.6378116607666016,-10.309432983398438,0.8074445128440857,0.04153883829712868,-0.18051068484783173,0.997848391532898,29.544191360473633,74.6510238647461,287.304931640625,2180
2.5073277950286865,-10.29746150970459,1.3736732006072998,-0.013744467869400978,-0.11698069423437119,0.9352346658706665,28.633142471313477,74.61737060546875,288.31231689453125,2190
2.1296424865722656,-9.79527759552002,1.1468225717544556,0.023518312722444534,-0.13836097717285156,0.8665123581886292,27.280616760253906,74.90025329589844,289.4183044433594,2200
1.854907751083374,-9.066243171691895,0.6661866307258606,0.07147123664617538,-0.1722639948129654,0.8005388975143433,27.084579467773438,74.98939514160156,289.28436279296875,2210
1.4652514457702637,-8.400654792785645,0.8948329091072083,0.10690141469240189,-0.166460782289505,0.7437284588813782,26.090810775756836,75.42969512939453,290.4466552734375,2220
1.1976994276046753,-8.972270965576172,0.9540894031524658,0.08735372871160507,-0.15454891324043274,0.674089789390564,24.996421813964844,75.8237533569336,291.350830078125,2230
1.1976994276046753,-8.972270965576172,0.9540894031524658,0.08735372871160507,-0.15454891324043274,0.674089789390564,24.996421813964844,75.8237533569336,291.350830078125,2240
0.5776011347770691,-8.8878755569458,0.74040687084198,0.00733038317412138,-0.03878994286060333,0.6630942225456238,23.385297775268555,77.17300415039063,293.29229736328125,2250
0.5776011347770691,-8.8878755569458,0.74040687084198,0.00733038317412138,-0.03878994286060333,0.6630942225456238,23.385297775268555,77.17300415039063,293.29229736328125,2260
1.1252747774124146,-8.513781547546387,1.2832920551300049,-0.05772676691412926,0.08827003091573715,0.9159924387931824,20.106943130493164,77.81106567382813,296.5724792480469,2270
1.1252747774124146,-8.513781547546387,1.2832920551300049,-0.05772676691412926,0.08827003091573715,0.9159924387931824,20.106943130493164,77.81106567382813,296.5724792480469,2280
0.38127660751342773,-7.144298076629639,0.040701430290937424,-0.03237585723400116,0.10354165732860565,1.0433578491210938,20.114370346069336,79.11146545410156,296.3294677734375,2290
0.7152677774429321,-5.78798246383667,0.7775170207023621,-0.31123584508895874,0.22937989234924316,1.33168625831604,19.088525772094727,79.82047271728516,297.5506286621094,2300
0.11432313174009323,-5.738302707672119,2.4211363792419434,-0.42699480056762695,0.3075706362724304,1.3857477903366089,11.659198760986328,79.50505828857422,305.51947021484375,2310
0.11432313174009323,-5.738302707672119,2.4211363792419434,-0.42699480056762695,0.3075706362724304,1.3857477903366089,11.659198760986328,79.50505828857422,305.51947021484375,2320
-0.9666589498519897,-6.457760334014893,0.353743314743042,-0.4205807149410248,0.3943135142326355,1.330464482307434,7.620316505432129,80.80741119384766,309.4987487792969,2330
-0.6949170231819153,-13.993510246276855,2.3038206100463867,-0.37690386176109314,0.7452555894851685,1.350012183189392,358.2273864746094,81.51195526123047,319.4411315917969,2340
1.8567034006118774,-15.120580673217773,1.6035165786743164,-0.34055736660957336,1.0879509449005127,1.4450017213821411,358.4349670410156,81.55442810058594,319.21868896484375,2350
4.654926776885986,-14.863802909851074,0.8062474131584167,-0.17440202832221985,0.7232644557952881,1.522887110710144,7.254854679107666,80.63760375976563,309.5658874511719,2360
4.122815132141113,-13.954604148864746,0.02214636653661728,0.04581489413976669,0.46211954951286316,1.6667457818984985,13.502363204956055,80.28736114501953,302.9869079589844,2370
2.5318682193756104,-12.713211059570313,-0.34356793761253357,0.14324790239334106,0.26939156651496887,1.5363260507583618,18.616716384887695,80.2606201171875,297.5987854003906,2380
1.3281834125518799,-11.936891555786133,-0.004788403399288654,0.19303341209888458,0.4291328489780426,1.1704177856445313,20.594247817993164,80.65254211425781,295.9360656738281,2390
0.6236895322799683,-11.158775329589844,0.4495113790035248,0.2171625941991806,0.44837507605552673,0.835358202457428,20.28839111328125,81.0381851196289,295.94232177734375,2400
-0.17178396880626678,-10.515932083129883,0.6715735793113708,0.13255776464939117,0.27122417092323303,0.6261368989944458,18.19405746459961,81.80813598632813,298.1944274902344,2410
-0.32381579279899597,-10.114903450012207,0.7852981686592102,0.036041051149368286,0.15851953625679016,0.47708576917648315,15.751222610473633,82.4608383178711,300.8121032714844,2420
-0.07242459803819656,-9.93474006652832,0.7571662664413452,0.0064140851609408855,0.08277224004268646,0.37598755955696106,13.279850959777832,82.98052215576172,303.7533264160156,2430
0.47465047240257263,-10.51413631439209,0.9852139949798584,-0.00427605677396059,-0.005497787147760391,0.3039054572582245,11.200772285461426,83.12710571289063,305.91839599609375,2440
0.8906430602073669,-9.893440246582031,0.993593692779541,-0.013133603148162365,0.012828170321881771,0.0705549344420433,9.552814483642578,82.95438385009766,307.24310302734375,2450
0.8906430602073669,-9.893440246582031,0.993593692779541,-0.013133603148162365,0.012828170321881771,0.0705549344420433,9.552814483642578,82.95438385009766,307.24310302734375,2460
0.322618693113327,-10.60391902923584,1.2910733222961426,0.005497787147760391,0.10659598559141159,-0.08185594528913498,6.378889560699463,83.01385498046875,310.8890075683594,2470
-0.0035913025494664907,-10.317214012145996,0.7870938181877136,-0.011301007121801376,0.22510384023189545,-0.24617868661880493,4.15230131149292,83.3658447265625,313.20526123046875,2480
0.06224924325942993,-9.865307807922363,0.8152256608009338,0.009773843921720982,0.5299255847930908,-0.31551191210746765,358.3209228515625,83.89404296875,319.2405700683594,2490
0.01496376097202301,-10.770316123962402,0.6823474764823914,0.0,0.541532039642334,-0.294437050819397,356.9019775390625,84.14532470703125,321.1036071777344,2500
0.4405331015586853,-11.266514778137207,0.6506243348121643,-0.009468411095440388,0.5103778839111328,-0.25564709305763245,356.18084716796875,84.40826416015625,321.8422546386719,2510
2520
0.6554127335548401,-10.788871765136719,0.7535749673843384,-0.012217304669320583,0.45692721009254456,-0.16401731967926025,356.2203369140625,84.45316314697266,321.8008728027344,2530
0.4794389009475708,-10.761338233947754,0.7242460250854492,-0.005497787147760391,0.3830125033855438,-0.08552113175392151,355.5453186035156,84.56230926513672,322.4932861328125,2540
0.5063736438751221,-10.271124839782715,1.0301052331924438,-0.00427605677396059,0.3445279896259308,-0.049785517156124115,354.1322937011719,84.48284912109375,323.9433898925781,2550
0.579995334148407,-10.26513957977295,0.8463503122329712,-3.054326225537807E-4,0.3387247920036316,-0.015577063895761967,354.5809020996094,84.4748306274414,324.26373291015625,2560
0.3561375141143799,-10.038887977600098,0.9301473498344421,0.02382374368607998,0.3191770911216736,0.005803219974040985,352.8968505859375,84.46550750732422,325.9950256347656,2570
0.16998831927776337,-8.7268648147583,1.4963760375976563,0.07360926270484924,0.2977968156337738,0.027183502912521362,348.9734191894531,84.16507720947266,330.04150390625,2580
0.16998831927776337,-8.7268648147583,1.4963760375976563,0.07360926270484924,0.2977968156337738,0.027183502912521362,348.9734191894531,84.16507720947266,330.04150390625,2590
1.2898762226104736,6.215347766876221,-0.38307225704193115,0.36621370911598206,0.27122417092323303,-0.015271631069481373,354.04241943359375,82.76622009277344,325.59649658203125,2600
1.2898762226104736,6.215347766876221,-0.38307225704193115,0.36621370911598206,0.27122417092323303,-0.015271631069481373,354.04241943359375,82.76622009277344,325.59649658203125,2610
-3.072359323501587,-5.073912143707275,2.7670986652374268,0.20494529604911804,0.47830748558044434,-0.6004805564880371,335.38897705078125,82.04952239990234,345.3218994140625,2620
-5.1565117835998535,-17.620126724243164,4.865017890930176,-0.02474004216492176,0.5766568183898926,-1.0937541723251343,337.5760498046875,81.94033813476563,343.06298828125,2630
3.098097085952759,-17.316661834716797,-1.0618284940719604,0.05925392732024193,0.4282165467739105,-0.9046914577484131,315.8943176269531,84.14957427978516,5.506828784942627,2640
4.549582004547119,-14.320319175720215,-0.5871779918670654,0.24617868661880493,1.1163562536239624,0.8069530129432678,339.38330078125,84.92367553710938,342.0103759765625,2650
4.8069586753845215,-13.329119682312012,0.1885433793067932,0.24617868661880493,1.1163562536239624,0.8069530129432678,2.292625665664673,84.35488891601563,318.49822998046875,2660
4.8069586753845215,-13.329119682312012,0.1885433793067932,-0.0455094613134861,0.9456194043159485,0.846659243106842,2.292625665664673,84.35488891601563,318.49822998046875,2670
-0.7428010702133179,-11.027692794799805,-0.34416648745536804,-0.10995574295520782,0.470060795545578,0.4535674452781677,2.4963104724884033,85.21979522705078,318.59783935546875,2680
-1.1085153818130493,-10.346542358398438,0.12270283699035645,0.005803219974040985,0.07360926270484924,-0.02474004216492176,359.0160217285156,85.75554656982422,322.6308288574219,2690
-0.6482301354408264,-9.764751434326172,0.9846154451370239,0.07177666574716568,-0.11881329119205475,-0.2623666226863861,352.5775451660156,85.78118896484375,329.2134704589844,2700
-0.16998831927776337,-9.280524253845215,1.4850035905838013,0.036041051149368286,-0.17256943881511688,-0.25992316007614136,346.7282409667969,85.50869750976563,335.20947265625,2710
1.0630255937576294,-7.000047206878662,2.1942858695983887,-0.00427605677396059,-0.2971859276294708,-0.21105393767356873,347.5495910644531,84.49468994140625,334.8299255371094,2720
0.47644615173339844,-7.863156795501709,2.1164743900299072,-0.027488935738801956,-0.3637702465057373,-0.16523905098438263,345.42559814453125,83.75267028808594,337.365234375,2730
0.24480712413787842,-7.636904716491699,1.734000563621521,-0.009162978269159794,-0.2996293902397156,-0.2330450862646103,343.8394470214844,83.21932220458984,339.03448486328125,2740
-0.7870938181877136,-9.123703956604004,1.6190788745880127,0.07330382615327835,-0.14996741712093353,-0.3695734739303589,337.8424987792969,83.05097961425781,345.241943359375,2750
-0.033518824726343155,-11.873444557189941,0.33698388934135437,0.16890424489974976,-0.02687807008624077,-0.42760565876960754,338.3340148925781,83.5689468383789,345.0767822265625,2760
0.5770025849342346,-11.744756698608398,0.7362170219421387,0.23151792585849762,-0.013744467869400978,-0.37751471996307373,339.7912292480469,83.80255126953125,343.5547180175781,2770
-0.6428431272506714,-10.519523620605469,1.3299790620803833,0.18509216606616974,0.002138028386980295,-0.21013765037059784,334.23516845703125,83.8182601928711,349.2765197753906,2780
1.0313023328781128,-11.495161056518555,-0.4076128304004669,0.11301007121801376,-0.09437867999076843,-0.0656680166721344,339.78125,84.63056182861328,343.51123046875,2790
1.113303780555725,-10.38844108581543,0.9714473485946655,0.10262536257505417,-0.07819075137376785,0.03940080851316452,343.6258544921875,84.47904968261719,339.5707702636719,2800
-0.004788403399288654,-10.773308753967285,0.9145850539207458,0.06291911751031876,0.09498954564332962,0.06230825558304787,341.63018798828125,84.59912872314453,341.61358642578125,2810
-0.2753331959247589,-10.6739501953125,0.6320692300796509,0.03634648025035858,0.03634648025035858,0.001527163083665073,339.141357421875,84.84888458251953,344.14813232421875,2820
-0.2849099934101105,-10.45547866821289,1.2324153184890747,0.02382374368607998,-0.033597588539123535,-0.022907447069883347,335.8265380859375,84.76969146728516,347.5592956542969,2830
-0.20709845423698425,-10.531495094299316,0.9858125448226929,-0.018936822190880775,-0.04795292019844055,-0.03634648025035858,333.53338623046875,84.79481506347656,349.91015625,2840
0.13826514780521393,-10.348937034606934,1.2665326595306396,-0.043676864355802536,-0.1111774742603302,-0.04764748737215996,333.1850891113281,84.62855529785156,350.28778076171875,2850
-0.010175357572734356,-10.888230323791504,1.1300631761550903,-0.05955936014652252,-0.16249015927314758,-0.05161811411380768,332.19342041015625,84.58618927001953,351.3114013671875,2860
0.1867477297782898,-10.5530424118042,1.0229226350784302,-0.06444628536701202,-0.20066922903060913,-0.07880161702632904,332.53509521484375,84.56529998779297,350.96307373046875,2870
2880
-0.07661445438861847,-10.281899452209473,0.9409212470054626,-0.09865473955869675,-0.17592918872833252,-0.10323622822761536,330.7332763671875,84.611328125,352.8074645996094,2890
-0.12629413604736328,-10.315418243408203,0.9355342984199524,-0.12736541032791138,-0.13805554807186127,-0.1059851199388504,329.67547607421875,84.66818237304688,353.8856201171875,2900
-0.13766659796237946,-10.404003143310547,0.9115923047065735,-0.1472185254096985,-0.11728613078594208,-0.10170906037092209,328.2734375,84.71946716308594,355.31689453125,2910
-0.10594342648983002,-10.45667552947998,0.862511157989502,-0.16523905098438263,-0.08704829961061478,-0.09040805697441101,327.2888488769531,84.8033676147461,356.3143310546875,2920
-0.10534487664699554,-10.62127685546875,0.8158242106437683,-0.17592918872833252,-0.05497787147760391,-0.07788532227277756,326.2313537597656,84.89319610595703,357.3845520019531,2930
-0.10534487664699554,-10.62127685546875,0.8158242106437683,-0.17592918872833252,-0.05497787147760391,-0.07788532227277756,326.2313537597656,84.89319610595703,357.3845520019531,2940
-0.050876785069704056,-10.817602157592773,0.8319851160049438,-0.18509216606616974,-0.024129176512360573,-0.07024950534105301,325.887451171875,85.0187759399414,357.7172546386719,2950
-0.39564183354377747,-11.149198532104492,0.900818407535553,-0.23365595936775208,-0.008857546374201775,-0.04703662544488907,322.3781433105469,85.15071105957031,0.8691757917404175,2960
-0.39564183354377747,-11.149198532104492,0.900818407535553,-0.23365595936775208,-0.008857546374201775,-0.04703662544488907,322.3781433105469,85.15071105957031,0.8691757917404175,2970
0.6272808313369751,-10.898406028747559,0.7044938206672668,-0.25564709305763245,-0.001832595793530345,-0.013744467869400978,326.2405090332031,85.31909942626953,356.8916015625,2980
0.34416648745536804,-11.259331703186035,0.9379284977912903,-0.29107728600502014,0.012828170321881771,-0.0012217304902151227,328.0120849609375,85.27830505371094,355.0858154296875,2990
0.2454056739807129,-11.175535202026367,0.7978677153587341,-0.3286454975605011,0.006719517521560192,-0.045204028487205505,329.5042724609375,85.39933776855469,353.5418395996094,3000
-0.0011971008498221636,-10.951078414916992,0.595557689666748,-0.3478877544403076,-0.004886921960860491,-0.0705549344420433,329.46954345703125,85.62596893310547,353.5448303222656,3010
0.2585737705230713,-10.429740905761719,0.7559691667556763,-0.35613444447517395,6.108652451075613E-4,-0.0806342139840126,330.18646240234375,85.51585388183594,352.82781982421875,3020
-0.0975637212395668,-10.425551414489746,0.7823054194450378,-0.34666603803634644,-0.07238753139972687,-0.19547687470912933,330.3843688964844,85.65021514892578,352.58685302734375,3030
-0.0975637212395668,-10.425551414489746,0.7823054194450378,-0.34666603803634644,-0.07238753139972687,-0.19547687470912933,330.3843688964844,85.65021514892578,352.58685302734375,3040
0.15263035893440247,-10.196905136108398,0.7104793787002563,-0.31612277030944824,-0.06658431142568588,-0.20433442294597626,330.9978332519531,85.67581939697266,351.95703125,3050
0.4638765752315521,-9.747992515563965,1.027711033821106,-0.2831360399723053,-0.04245513305068016,-0.1814269721508026,333.3520812988281,85.50050354003906,349.57427978515625,3060
0.8607155084609985,-8.740632057189941,1.2587515115737915,-0.26481008529663086,-0.015882495790719986,-0.16279558837413788,337.36761474609375,85.11116027832031,345.4902648925781,3070
1.0480618476867676,-7.760804653167725,1.278503656387329,-0.25564709305763245,0.018325956538319588,-0.1774563491344452,341.0229187011719,84.5850601196289,341.7902526855469,3080
-0.5033808946609497,-8.465897560119629,0.8427590131759644,-0.21533000469207764,0.05650503560900688,-0.21624629199504852,337.2342224121094,84.66651916503906,345.6695861816406,3090
0.42856210470199585,-8.523956298828125,1.4413094520568848,-0.2119702398777008,0.1059851199388504,-0.2828305959701538,337.8584899902344,84.24343872070313,345.06787109375,3100
1.1234791278839111,-9.269750595092773,0.9906009435653687,-0.24862214922904968,0.06902777403593063,-0.2675589919090271,342.8526916503906,84.07533264160156,339.9325256347656,3110
0.8948329091072083,-9.725247383117676,0.4578910768032074,-0.14874568581581116,-0.1062905490398407,-0.18784105777740479,345.99810791015625,84.18378448486328,336.6946105957031,3120
0.557250440120697,-9.983820915222168,0.3579331636428833,-0.07849618047475815,-0.17501288652420044,-0.18020524084568024,348.5325012207031,84.41008758544922,334.0810546875,3130
0.4357447028160095,-10.185532569885254,0.3166331648826599,-0.07330382615327835,-0.1108720451593399,-0.18570303916931152,349.6626892089844,84.7199935913086,332.90826416015625,3140
0.27413609623908997,-10.250176429748535,0.33997663855552673,-0.0754418596625328,-0.08552113175392151,-0.18325957655906677,350.6239318847656,85.00664520263672,331.9046325683594,3150
0.09157821536064148,-10.257957458496094,0.31364041566848755,-0.07452555745840073,-0.11209376901388168,-0.1774563491344452,350.0966491699219,85.3398208618164,332.4310607910156,3160
-0.008379706181585789,-10.251971244812012,0.3124433159828186,-0.06872233748435974,-0.13286319375038147,-0.17043140530586243,349.1566467285156,85.65287017822266,333.37786865234375,3170
-0.08140286058187485,-10.267534255981445,0.3100491166114807,-0.06505715101957321,-0.14385876059532166,-0.166460782289505,347.38909912109375,85.9594497680664,335.165771484375,3180
-0.11013327538967133,-10.28010368347168,0.34177228808403015,-0.05925392732024193,-0.14935655891895294,-0.15057829022407532,345.87274169921875,86.20269012451172,336.69671630859375,3190
-0.07182604819536209,-10.254365921020508,0.414795458316803,-0.058337632566690445,-0.14782938361167908,-0.1270599663257599,342.6715087890625,86.41160583496094,339.9317932128906,3200
-0.009576806798577309,-10.211869239807129,0.4381389021873474,-0.0607810914516449,-0.13347405195236206,-0.10781771689653397,341.850341796875,86.53118133544922,340.7574157714844,3210
0.041299980133771896,-10.195109367370605,0.4596867263317108,-0.05864306539297104,-0.12400564551353455,-0.09682214260101318,340.7171936035156,86.6316909790039,342.17938232421875,3220
0.03651157766580582,-10.169970512390137,0.4315548539161682,-0.056810468435287476,-0.1258382350206375,-0.09315694868564606,340.0932312011719,86.72439575195313,342.80511474609375,3230
3240
0.08200141042470932,-10.127472877502441,0.3387795388698578,-0.06414084881544113,-0.12736541032791138,-0.09743300825357437,339.3192138671875,86.98396301269531,343.56768798828125,3250
0.13048399984836578,-10.04307746887207,0.284311443567276,-0.06475171446800232,-0.1212567538022995,-0.10812314599752426,340.04571533203125,87.10551452636719,342.8204345703125,3260
0.08080431073904037,-10.062231063842773,0.23044191300868988,-0.06933320313692093,-0.12217304855585098,-0.11148291081190109,340.4770812988281,87.25455474853516,342.3704833984375,3270
0.20231004059314728,-10.102932929992676,0.20530278980731964,-0.07238753139972687,-0.12278391420841217,-0.1108720451593399,342.0458984375,87.38460540771484,340.77105712890625,3280
0.2759317457675934,-10.13166332244873,0.20709845423698425,-0.08032877743244171,-0.12919799983501434,-0.10873401165008545,344.7874755859375,87.48448181152344,337.9830322265625,3290
0.27473464608192444,-10.116100311279297,0.1280897855758667,-0.09162978827953339,-0.12919799983501434,-0.10995574295520782,347.5795593261719,87.61370086669922,335.151123046875,3300
0.2735375463962555,-10.099940299987793,0.13527239859104156,-0.096211276948452,-0.10262536257505417,-0.1111774742603302,350.73486328125,87.71483612060547,331.9560852050781,3310
0.2735375463962555,-10.099940299987793,0.13527239859104156,-0.096211276948452,-0.10262536257505417,-0.1111774742603302,350.73486328125,87.71483612060547,331.9560852050781,3320
0.35434186458587646,-10.227431297302246,0.10833762586116791,-0.10537425428628922,-0.07788532227277756,-0.10506882518529892,355.1356201171875,87.79725646972656,327.5054931640625,3330
0.4489128291606903,-10.216657638549805,0.13108254969120026,-0.10781771689653397,-0.07513642311096191,-0.09896016865968704,358.73077392578125,87.82138061523438,323.8721008300781,3340
0.5650315880775452,-10.29865837097168,0.03770867735147476,-0.11148291081190109,-0.08552113175392151,-0.10415252298116684,6.044622421264648,87.81340789794922,316.0943908691406,3350
0.6087257862091064,-10.219650268554688,0.08918401598930359,-0.11514809727668762,-0.09437867999076843,-0.11148291081190109,10.798881530761719,87.75658416748047,311.2879943847656,3360
0.5620388388633728,-10.178948402404785,0.08140286058187485,-0.11514809727668762,-0.10537425428628922,-0.11484266817569733,15.973623275756836,87.69140625,306.0543212890625,3370
0.5542576909065247,-10.104129791259766,0.09876082092523575,-0.11148291081190109,-0.11789698898792267,-0.12522737681865692,19.02581024169922,87.63263702392578,302.9648132324219,3380
0.5111620426177979,-10.020332336425781,0.10594342648983002,-0.1007927656173706,-0.1270599663257599,-0.13866640627384186,21.279878616333008,87.5898666381836,300.68255615234375,3390
0.4638765752315521,-9.964667320251465,0.04967968538403511,-0.09376781433820724,-0.13439035415649414,-0.1408044397830963,24.087907791137695,87.55591583251953,297.4625549316406,3400
0.44173020124435425,-9.95329475402832,0.05746084079146385,-0.08735372871160507,-0.13866640627384186,-0.13469578325748444,25.85413360595703,87.5664291381836,295.6785583496094,3410
0.45669397711753845,-9.968857765197754,0.08559270948171616,-0.0754418596625328,-0.14905111491680145,-0.13469578325748444,27.761171340942383,87.52242279052734,293.7461853027344,3420
0.41120412945747375,-10.022128105163574,0.07422025501728058,-0.0659734457731247,-0.16737708449363708,-0.13347405195236206,28.72588348388672,87.55055236816406,292.774658203125,3430
0.3734954595565796,-10.102932929992676,0.06404489278793335,-0.0656680166721344,-0.1817324161529541,-0.13286319375038147,29.887866973876953,87.56168365478516,291.3073425292969,3440
0.3477577865123749,-10.186729431152344,0.07062894850969315,-0.06688974797725677,-0.1823432743549347,-0.1264491081237793,30.5164794921875,87.6266098022461,290.68072509765625,3450
0.3429693877696991,-10.232817649841309,0.10534487664699554,-0.07452555745840073,-0.17531833052635193,-0.12308934330940247,30.839269638061523,87.646484375,290.00042724609375,3460
0.3076549172401428,-10.20767879486084,0.12509703636169434,-0.08338310569524765,-0.17318029701709747,-0.11911872029304504,30.646320343017578,87.70645904541016,290.202880859375,3470
0.25917232036590576,-10.183138847351074,0.1412578970193863,-0.08888089656829834,-0.16554448008537292,-0.11972958594560623,30.44194221496582,87.75563049316406,290.4154357910156,3480
0.21607670187950134,-10.144232749938965,0.11133038252592087,-0.08460483700037003,-0.14905111491680145,-0.1258382350206375,29.83222770690918,87.84713745117188,291.042236328125,3490
0.14065934717655182,-10.132261276245117,0.03651157766580582,-0.06688974797725677,-0.14049901068210602,-0.13316862285137177,29.593494415283203,88.07369232177734,290.93316650390625,3500
0.14065934717655182,-10.132261276245117,0.03651157766580582,-0.06688974797725677,-0.14049901068210602,-0.13316862285137177,29.593494415283203,88.07369232177734,290.93316650390625,3510
0.10354922711849213,-10.135852813720703,-0.03232172131538391,-0.05864306539297104,-0.12919799983501434,-0.1316414624452591,31.177982330322266,88.18058776855469,289.3502502441406,3520
0.08439560979604721,-10.109517097473145,-0.02513911761343479,-0.04734205827116966,-0.11148291081190109,-0.1316414624452591,31.85883331298828,88.32906341552734,288.6844787597656,3530
0.12509703636169434,-10.091560363769531,-0.04369417950510979,-0.0503963828086853,-0.09193521738052368,-0.13011430203914642,33.775455474853516,88.41575622558594,286.7746276855469,3540
0.15801730751991272,-10.091560363769531,-0.05267243832349777,-0.06261368840932846,-0.06505715101957321,-0.12034045159816742,35.898048400878906,88.51549530029297,284.65386962890625,3550
0.24121582508087158,-10.05923843383789,-0.06344634294509888,-0.06352998316287994,-0.04092797264456749,-0.1062905490398407,38.862579345703125,88.51641845703125,281.6729736328125,3560
0.3076549172401428,-10.047865867614746,-0.09038111567497253,-0.056810468435287476,-0.025045474991202354,-0.09834930300712585,41.781166076660156,88.5281982421875,278.74072265625,3570
0.36152446269989014,-10.042478561401367,-0.09516951441764832,-0.052839845418930054,-0.014966198243200779,-0.09529497474431992,44.552608489990234,88.45794677734375,275.5946350097656,3580
0.40701428055763245,-10.058639526367188,-0.1041477769613266,-0.04153883829712868,-6.108652451075613E-4,-0.09407325088977814,47.210609436035156,88.3917236328125,272.91058349609375,3590
3600
0.4381389021873474,-10.131064414978027,-0.152031809091568,-0.025045474991202354,0.005497787147760391,-0.10934487730264664,52.521270751953125,88.21885681152344,267.5381774902344,3610
0.44412440061569214,-10.11669921875,-0.14185644686222076,-0.01618792861700058,-9.162978967651725E-4,-0.11270463466644287,54.130130767822266,88.11487579345703,265.8994445800781,3620
0.45250412821769714,-10.10053825378418,-0.076015904545784,-0.009468411095440388,-0.00366519158706069,-0.10934487730264664,54.50788116455078,88.0501708984375,265.2108459472656,3630
0.4602852761745453,-10.071209907531738,-0.0293289702385664,-0.01618792861700058,-0.00427605677396059,-0.10659598559141159,54.23343276977539,87.97154998779297,265.4705505371094,3640
0.4602852761745453,-10.071209907531738,-0.0293289702385664,-0.01618792861700058,-0.00427605677396059,-0.10659598559141159,54.23343276977539,87.97154998779297,265.4705505371094,3650
0.4315548539161682,-10.096348762512207,0.01496376097202301,-0.012828170321881771,-0.005803219974040985,-0.11026117950677872,53.20400619506836,87.91596984863281,266.49481201171875,3660
0.39145198464393616,-10.149619102478027,0.03292027488350868,-0.007024950347840786,-0.012217304669320583,-0.11331550031900406,52.27437210083008,87.90491485595703,267.4419250488281,3670
0.3411737382411957,-10.19032096862793,0.05626374110579491,-0.012828170321881771,-0.018325956538319588,-0.11056660860776901,51.31931686401367,87.92953491210938,268.4075927734375,3680
0.22445641458034515,-10.130465507507324,0.03950432687997818,3.054326225537807E-4,-0.027183502912521362,-0.10415252298116684,50.02385711669922,88.06426239013672,269.375,3690
0.22445641458034515,-10.130465507507324,0.03950432687997818,3.054326225537807E-4,-0.027183502912521362,-0.10415252298116684,50.02385711669922,88.06426239013672,269.375,3700
0.2693476974964142,-10.072406768798828,0.11013327538967133,0.0039706239476799965,-0.02626720629632473,-0.09773843735456467,47.25690841674805,88.06842041015625,272.1593017578125,3710
0.3172317147254944,-10.047865867614746,0.18136078119277954,0.007024950347840786,-0.025045474991202354,-0.09162978827953339,44.826210021972656,88.10090637207031,274.6106872558594,3720
0.3214215636253357,-10.163386344909668,0.166995570063591,0.007635815534740686,-0.018325956538319588,-0.0907134860754013,42.06324768066406,88.0834732055664,277.388427734375,3730
0.3214215636253357,-10.13525390625,0.2124854028224945,0.0039706239476799965,-0.007024950347840786,-0.0907134860754013,39.32520294189453,88.08041381835938,280.14422607421875,3740
0.2867056429386139,-10.121487617492676,0.26994624733924866,0.00427605677396059,0.0,-0.09254608303308487,35.296722412109375,88.05197143554688,284.1966857910156,3750
0.2711433470249176,-10.101137161254883,0.2783259451389313,0.016493361443281174,0.00427605677396059,-0.10018189996480942,32.37153244018555,88.09525299072266,287.148681640625,3760
0.25977087020874023,-10.13286018371582,0.24779987335205078,0.02321287989616394,-0.007635815534740686,-0.10690141469240189,28.509702682495117,88.03517150878906,290.6749267578125,3770
0.2519897222518921,-10.172364234924316,0.2669534981250763,0.032070424407720566,-0.02626720629632473,-0.10873401165008545,26.134971618652344,88.0765380859375,293.072265625,3780
0.21667525172233582,-10.192715644836426,0.3064578175544739,0.031154127791523933,-0.046731192618608475,-0.10934487730264664,22.557636260986328,88.05418395996094,296.6751403808594,3790
0.18076223134994507,-10.236409187316895,0.363918662071228,0.019853120669722557,-0.06383541971445084,-0.1062905490398407,18.69934844970703,88.07501983642578,300.5657043457031,3800
0.16160862147808075,-10.283096313476563,0.32022446393966675,0.008246680721640587,-0.0754418596625328,-0.10170906037092209,15.494220733642578,88.07136535644531,303.7962646484375,3810
0.10055647045373917,-10.359710693359375,0.22744916379451752,0.00427605677396059,-0.08307767659425735,-0.1007927656173706,13.243244171142578,88.17478942871094,306.0710144042969,3820
0.048482585698366165,-10.402207374572754,0.19871874153614044,-0.008857546374201775,-0.08918632566928864,-0.10293079167604446,11.144330978393555,88.23963928222656,308.18914794921875,3830
0.028131870552897453,-10.379463195800781,0.19692309200763702,-0.03420845419168472,-0.08674286305904388,-0.1014036312699318,8.602133750915527,88.36565399169922,310.7549743652344,3840
0.041299980133771896,-10.298060417175293,0.262763649225235,-0.05345070734620094,-0.07788532227277756,-0.10231992602348328,5.754878997802734,88.39366912841797,313.2674560546875,3850
0.06344634294509888,-10.202890396118164,0.35075053572654724,-0.06811147183179855,-0.07024950534105301,-0.10231992602348328,1.0692888498306274,88.41057586669922,317.9857177734375,3860
0.06344634294509888,-10.123882293701172,0.33937808871269226,-0.07910704612731934,-0.061391957104206085,-0.10506882518529892,358.7071533203125,88.38687133789063,320.3642883300781,3870
-0.03411737456917763,-10.18792724609375,0.24779987335205078,-0.07910704612731934,-0.041233405470848083,-0.11484266817569733,354.2525939941406,88.45553588867188,324.84832763671875,3880
0.13407529890537262,-9.925163269042969,0.12389993667602539,-0.08277224004268646,-0.02015855349600315,-0.11575896292924881,356.12481689453125,88.49506378173828,322.96295166015625,3890
0.0628477931022644,-10.05923843383789,0.09038111567497253,-0.08338310569524765,0.0027488935738801956,-0.11575896292924881,355.7046203613281,88.58570098876953,323.38427734375,3900
0.05267243832349777,-10.163984298706055,0.03232172131538391,-0.07971791177988052,0.02076941914856434,-0.1212567538022995,357.2994384765625,88.68017578125,321.778564453125,3910
0.0293289702385664,-10.181941032409668,0.03890577703714371,-0.08216137439012527,0.025656340643763542,-0.11850785464048386,356.2763671875,88.79682922363281,322.80572509765625,3920
0.08858546614646912,-10.142436981201172,0.06464344263076782,-0.07635815441608429,0.0455094613134861,-0.11514809727668762,359.0101623535156,88.83399200439453,320.05731201171875,3930
0.1867477297782898,-10.113107681274414,0.1562216579914093,-0.06688974797725677,0.06811147183179855,-0.10965031385421753,358.11041259765625,88.83685302734375,320.961669921875,3940
0.26336219906806946,-10.073603630065918,0.25079262256622314,-0.06352998316287994,0.09010262042284012,-0.09987647086381912,0.6057315468788147,88.7245101928711,318.4532470703125,3950
3960
0.25019407272338867,-10.075399398803711,0.16998831927776337,-0.054367005825042725,0.1408044397830963,-0.08918632566928864,2.7076900005340576,88.61619567871094,316.33831787109375,3970
0.23163901269435883,-10.085575103759766,0.11911153793334961,-0.03634648025035858,0.1472185254096985,-0.08307767659425735,4.458343505859375,88.60548400878906,314.5768737792969,3980
0.18315643072128296,-10.091560363769531,0.09816227108240128,-0.019853120669722557,0.12950342893600464,-0.07177666574716568,5.495908737182617,88.61959075927734,313.5333251953125,3990
0.18315643072128296,-10.091560363769531,0.09816227108240128,-0.019853120669722557,0.12950342893600464,-0.07177666574716568,5.495908737182617,88.61959075927734,313.5333251953125,4000
0.18974047899246216,-10.05923843383789,0.0999579206109047,-0.015577063895761967,0.11178833991289139,-0.052839845418930054,6.529105186462402,88.64838409423828,312.49468994140625,4010
0.22505496442317963,-10.057442665100098,0.11432313174009323,-0.009773843921720982,0.10567969083786011,-0.04764748737215996,8.232804298400879,88.63613891601563,311.1451416015625,4020
0.22505496442317963,-10.057442665100098,0.11432313174009323,-0.009773843921720982,0.10567969083786011,-0.04764748737215996,8.232804298400879,88.63613891601563,311.1451416015625,4030
0.2082955539226532,-10.13286018371582,0.06703764945268631,-9.162978967651725E-4,0.096211276948452,-0.04398229718208313,11.058091163635254,88.65767669677734,308.3040771484375,4040
0.3381809890270233,-10.16637897491455,-0.13287819921970367,0.013133603148162365,0.11820242553949356,-0.05406157299876213,22.842662811279297,88.68077087402344,296.4547424316406,4050
0.3381809890270233,-10.16637897491455,-0.13287819921970367,0.013133603148162365,0.11820242553949356,-0.05406157299876213,22.842662811279297,88.68077087402344,296.4547424316406,4060
0.4129997789859772,-10.172364234924316,-0.21128830313682556,0.009773843921720982,0.11423180252313614,-0.04734205827116966,30.97065544128418,88.62911987304688,288.2774658203125,4070
0.4926069974899292,-10.193912506103516,-0.2406172752380371,0.008857546374201775,0.11301007121801376,-0.04489859566092491,40.5255012512207,88.54841613769531,278.66162109375,4080
0.5219359993934631,-10.193912506103516,-0.2298433631658554,0.003054326167330146,0.10231992602348328,-0.04581489413976669,45.67502212524414,88.39708709716797,273.4604797363281,4090
0.49619829654693604,-10.189722061157227,-0.2944868206977844,0.001832595793530345,0.09040805697441101,-0.042760565876960754,52.46318817138672,88.28822326660156,266.6283874511719,4100
0.49380409717559814,-10.186131477355957,-0.3423708379268646,0.003359758760780096,0.0705549344420433,-0.03848451003432274,57.5033073425293,88.16111755371094,261.5396728515625,4110
0.5380968451499939,-10.16877269744873,-0.40282443165779114,0.0,0.03145955875515938,-0.030237829312682152,67.16807556152344,87.87615203857422,252.13401794433594,4120
0.5380968451499939,-10.16877269744873,-0.40282443165779114,0.0,0.03145955875515938,-0.030237829312682152,67.16807556152344,87.87615203857422,252.13401794433594,4130
0.5752069354057312,-10.165182113647461,-0.35015198588371277,3.054326225537807E-4,0.015577063895761967,-0.025045474991202354,68.51636505126953,87.72643280029297,250.74618530273438,4140
0.5386953949928284,-10.16637897491455,-0.3878606855869293,9.162978967651725E-4,0.004581489134579897,-0.025961773470044136,71.4466323852539,87.58776092529297,247.77166748046875,4150
0.49619829654693604,-10.178948402404785,-0.5105634927749634,-0.005192354787141085,-0.003359758760780096,-0.030543262138962746,74.6737289428711,87.45793914794922,244.50112915039063,4160
0.46567222476005554,-10.192715644836426,-0.5117605924606323,0.0027488935738801956,-0.003054326167330146,-0.03848451003432274,77.89664459228516,87.34442901611328,241.23898315429688,4170
0.4884171485900879,-10.204686164855957,-0.4866214990615845,-0.0012217304902151227,-0.001832595793530345,-0.044287730008363724,79.75507354736328,87.23494720458984,239.34750366210938,4180
0.5003881454467773,-10.162787437438965,-0.45489832758903503,-0.01160643994808197,-0.007024950347840786,-0.04612032696604729,79.39627075195313,87.22088623046875,239.70407104492188,4190
0.5165489912033081,-10.143035888671875,-0.3974374830722809,-0.013744467869400978,-0.013744467869400978,-0.0503963828086853,78.84645080566406,87.20529174804688,240.251953125,4200
0.4686649739742279,-10.168174743652344,-0.4034229815006256,-0.02535090781748295,-0.032681290060281754,-0.05345070734620094,78.54643249511719,87.18902587890625,240.54908752441406,4210
0.42616790533065796,-10.181343078613281,-0.4159925580024719,-0.027488935738801956,-0.0555887371301651,-0.05650503560900688,78.1019287109375,87.16876983642578,240.99032592773438,4220
0.45429977774620056,-10.150816917419434,-0.41120412945747375,-0.029016099870204926,-0.06780604273080826,-0.06169738993048668,77.93928527832031,87.15167236328125,241.1494140625,4230
0.38067805767059326,-10.114903450012207,-0.4626794755458832,-0.03451388701796532,-0.07360926270484924,-0.06536258012056351,77.66231536865234,87.12567138671875,241.42117309570313,4240
0.424970805644989,-10.084976196289063,-0.47584760189056396,-0.039095375686883926,-0.07757988572120667,-0.06291911751031876,77.64460754394531,87.10517883300781,241.43399047851563,4250
0.4836287498474121,-10.08078670501709,-0.4159925580024719,-0.05161811411380768,-0.07757988572120667,-0.05650503560900688,77.51911163330078,87.07323455810547,241.55227661132813,4260
0.4884171485900879,-10.133459091186523,-0.3579331636428833,-0.054367005825042725,-0.06902777403593063,-0.059864792972803116,77.47184753417969,87.05323028564453,241.59490966796875,4270
0.4165911078453064,-10.186729431152344,-0.3471592366695404,-0.0507018156349659,-0.0656680166721344,-0.07177666574716568,77.19039916992188,87.01934814453125,241.86935424804688,4280
0.3770867586135864,-10.188525199890137,-0.36332011222839355,-0.041233405470848083,-0.06536258012056351,-0.07666359096765518,77.0639419555664,87.0035629272461,241.99253845214844,4290
0.3274070918560028,-10.17176628112793,-0.4010287821292877,-0.029932396486401558,-0.06841690838336945,-0.08552113175392151,76.46141815185547,86.96778106689453,242.58908081054688,4300
0.27054479718208313,-10.156203269958496,-0.4572925269603729,-0.022602014243602753,-0.07727445662021637,-0.09712757170200348,76.47607421875,86.95940399169922,242.5723876953125,4310
4320
0.2825157940387726,-10.11550235748291,-0.4381389021873474,-0.021991148591041565,-0.09346238523721695,-0.09346238523721695,75.84925079345703,86.91313934326172,243.1910400390625,4330
0.2825157940387726,-10.11550235748291,-0.4381389021873474,-0.021991148591041565,-0.09346238523721695,-0.09346238523721695,75.84925079345703,86.91313934326172,243.1910400390625,4340
0.23762452602386475,-10.140042304992676,-0.3645172119140625,-0.031154127791523933,-0.09560041129589081,-0.09315694868564606,75.20487213134766,86.87012481689453,243.85272216796875,4350
0.23762452602386475,-10.140042304992676,-0.3645172119140625,-0.031154127791523933,-0.09560041129589081,-0.09315694868564606,75.20487213134766,86.87012481689453,243.85272216796875,4360
0.10115502029657364,-10.140042304992676,-0.29807811975479126,-0.03634648025035858,-0.08307767659425735,-0.09498954564332962,74.53727722167969,86.83448028564453,244.51544189453125,4370
0.10115502029657364,-10.140042304992676,-0.29807811975479126,-0.03634648025035858,-0.08307767659425735,-0.09498954564332962,74.53727722167969,86.83448028564453,244.51544189453125,4380
0.06524199992418289,-10.116100311279297,-0.25917232036590576,-0.03451388701796532,-0.08002334833145142,-0.09468411654233932,74.1263427734375,86.81856536865234,244.9248809814453,4390
0.035913024097681046,-10.08318042755127,-0.24001872539520264,-0.03237585723400116,-0.07941248267889023,-0.09285151958465576,73.93605041503906,86.82158660888672,245.1168212890625,4400
0.015562310814857483,-10.080187797546387,-0.22266076505184174,-0.03390302136540413,-0.07757988572120667,-0.08888089656829834,73.62368774414063,86.81832122802734,245.43008422851563,4410
0.0071826050989329815,-10.121487617492676,-0.22385786473751068,-0.029016099870204926,-0.07696902006864548,-0.0913243517279625,73.16620635986328,86.8098373413086,245.8880615234375,4420
-0.0586579404771328,-10.102932929992676,-0.2017114907503128,-0.028099801391363144,-0.07116580009460449,-0.09224065393209457,72.79985046386719,86.81088256835938,246.25662231445313,4430
-0.07242459803819656,-10.14782428741455,-0.22864626348018646,-0.033597588539123535,-0.052839845418930054,-0.09437867999076843,72.5792007446289,86.81500244140625,246.4793701171875,4440
-0.13048399984836578,-10.094552993774414,-0.20111294090747833,-0.033597588539123535,-0.030543262138962746,-0.09468411654233932,72.2376480102539,86.81524658203125,246.82286071777344,4450
-0.048482585698366165,-10.091560363769531,-0.2041056901216507,-0.025961773470044136,-0.01466076634824276,-0.09346238523721695,71.9356689453125,86.82097625732422,247.12779235839844,4460
0.048482585698366165,-10.043676376342773,-0.17298106849193573,-0.019853120669722557,-0.006108652334660292,-0.09224065393209457,71.252197265625,86.81002044677734,247.81268310546875,4470
0.07900865375995636,-10.061633110046387,-0.14245499670505524,-0.012828170321881771,0.001832595793530345,-0.0907134860754013,70.81885528564453,86.81562042236328,248.24974060058594,4480
0.08319851011037827,-10.083779335021973,-0.10833762586116791,-0.012828170321881771,0.01771509274840355,-0.09040805697441101,69.90287780761719,86.80291748046875,249.16836547851563,4490
0.08140286058187485,-10.110115051269531,-0.15083470940589905,-0.005497787147760391,0.03145955875515938,-0.09437867999076843,69.49578857421875,86.81033325195313,249.5795135498047,4500
0.09636662155389786,-10.119093894958496,-0.152031809091568,-9.162978967651725E-4,0.042760565876960754,-0.09834930300712585,68.51931762695313,86.7957534790039,250.55886840820313,4510
0.11791443079710007,-10.11669921875,-0.12389993667602539,3.054326225537807E-4,0.04856378585100174,-0.09224065393209457,67.96772003173828,86.79954528808594,251.11474609375,4520
0.11192893236875534,-10.108319282531738,-0.14065934717655182,0.001832595793530345,0.04795292019844055,-0.08796459436416626,67.03068542480469,86.79039001464844,252.07928466796875,4530
0.10953472554683685,-10.09934139251709,-0.15143325924873352,0.01038470957428217,0.0507018156349659,-0.09010262042284012,66.45283508300781,86.79502868652344,252.66180419921875,4540
0.11372458189725876,-10.087968826293945,-0.15981295704841614,0.021991148591041565,0.05619960278272629,-0.0913243517279625,65.23176574707031,86.78459167480469,253.88885498046875,4550
0.1173158809542656,-10.074800491333008,-0.14365209639072418,0.027488935738801956,0.05803219974040985,-0.09254608303308487,64.59786224365234,86.79039001464844,254.5281982421875,4560
0.11971008777618408,-10.083779335021973,-0.1256955862045288,0.03573561832308769,0.05772676691412926,-0.09437867999076843,63.27788543701172,86.78057861328125,255.85540771484375,4570
0.12988543510437012,-10.08198356628418,-0.11252748221158981,0.040622539818286896,0.05864306539297104,-0.09376781433820724,62.33185577392578,86.78034210205078,256.80816650390625,4580
0.1759738177061081,-10.096348762512207,-0.10833762586116791,0.03329215571284294,0.06291911751031876,-0.08949175477027893,61.43836975097656,86.77766418457031,257.7076416015625,4590
0.2364274114370346,-10.110713958740234,-0.07062894850969315,0.0354301854968071,0.0757472887635231,-0.08674286305904388,60.00619125366211,86.7605209350586,259.14739990234375,4600
0.27892449498176575,-10.107122421264648,-0.030526071786880493,0.039095375686883926,0.08399397134780884,-0.0861319974064827,58.960304260253906,86.75218963623047,260.1998596191406,4610
0.26575639843940735,-10.101137161254883,-0.05027823522686958,0.038179077208042145,0.08277224004268646,-0.08277224004268646,57.704681396484375,86.73829650878906,261.46295166015625,4620
0.20111294090747833,-10.127472877502441,-0.0586579404771328,0.0403171069920063,0.07391469180583954,-0.08674286305904388,56.68588638305664,86.73049926757813,262.48870849609375,4630
0.12928688526153564,-10.143633842468262,-0.09696517139673233,0.045204028487205505,0.06475171446800232,-0.09376781433820724,55.617671966552734,86.72027587890625,263.56402587890625,4640
0.08259996026754379,-10.165780067443848,-0.07003039866685867,0.06291911751031876,0.058337632566690445,-0.08918632566928864,54.302207946777344,86.71329498291016,264.8894958496094,4650
0.07062894850969315,-10.126276016235352,-0.016759412363171577,0.06841690838336945,0.05253441259264946,-0.08429940044879913,53.055763244628906,86.71216583251953,266.1466064453125,4660
0.076015904545784,-10.102334022521973,0.06224924325942993,0.0656680166721344,0.04581489413976669,-0.08124507963657379,51.42642593383789,86.70164489746094,267.788818359375,4670
4680
0.07242459803819656,-10.083779335021973,0.07481880486011505,0.06780604273080826,0.06414084881544113,-0.07971791177988052,49.10784149169922,86.70194244384766,270.12884521484375,4690
0.09636662155389786,-10.080187797546387,0.08858546614646912,0.06841690838336945,0.06841690838336945,-0.07788532227277756,47.9943962097168,86.70075225830078,271.25262451171875,4700
0.14425064623355865,-10.144232749938965,0.08978256583213806,0.07849618047475815,0.0757472887635231,-0.07299839705228806,45.11566925048828,86.67828369140625,274.156005859375,4710
0.14425064623355865,-10.144232749938965,0.08978256583213806,0.07849618047475815,0.0757472887635231,-0.07299839705228806,45.11566925048828,86.67828369140625,274.156005859375,4720
0.12988543510437012,-10.153809547424316,0.09516951441764832,0.07910704612731934,0.08124507963657379,-0.07299839705228806,43.55287551879883,86.6612319946289,275.7320861816406,4730
0.11013327538967133,-10.155006408691406,0.08319851011037827,0.08491026610136032,0.08918632566928864,-0.07360926270484924,41.77850341796875,86.63645935058594,277.5213317871094,4740
0.08978256583213806,-10.122086524963379,0.07302315533161163,0.09010262042284012,0.08979719132184982,-0.07269296050071716,40.2569580078125,86.61800384521484,279.0565185546875,4750
0.08080431073904037,-10.149619102478027,0.07781155407428741,0.09162978827953339,0.08857546001672745,-0.07452555745840073,38.87748336791992,86.60113525390625,280.4486389160156,4760
0.10953472554683685,-10.156203269958496,0.04967968538403511,0.08796459436416626,0.09376781433820724,-0.07666359096765518,37.57697677612305,86.57994842529297,281.7607727050781,4770
0.15562310814857483,-10.196905136108398,-0.02214636653661728,0.08857546001672745,0.09468411654233932,-0.07513642311096191,36.13020324707031,86.54712677001953,283.2198181152344,4780
0.2124854028224945,-10.243592262268066,-0.08259996026754379,0.09376781433820724,0.08643743395805359,-0.07513642311096191,34.98705291748047,86.51956939697266,284.372802734375,4790
0.2693476974964142,-10.299257278442383,-0.11671733111143112,0.09162978827953339,0.07024950534105301,-0.07422012835741043,34.07212448120117,86.49518585205078,285.29559326171875,4800
0.3148375153541565,-10.307637214660645,-0.12689268589019775,0.0809396430850029,0.06291911751031876,-0.0708603709936142,32.79501724243164,86.44918060302734,286.58282470703125,4810
0.33518823981285095,-10.299257278442383,-0.06763619929552078,0.08002334833145142,0.06414084881544113,-0.07391469180583954,32.118770599365234,86.4270248413086,287.26483154296875,4820
0.33339259028434753,-10.260351181030273,-0.06224924325942993,0.07483099400997162,0.05925392732024193,-0.07666359096765518,30.93191146850586,86.37393188476563,288.4458312988281,4830
0.3363853394985199,-10.232817649841309,-0.0347159244120121,0.06352998316287994,0.05406157299876213,-0.07696902006864548,30.381532669067383,86.35111236572266,289.00091552734375,4840
0.2908954918384552,-10.199298858642578,-0.05386953800916672,0.048258353024721146,0.04856378585100174,-0.07147123664617538,29.531381607055664,86.30885314941406,289.85791015625,4850
0.2585737705230713,-10.201094627380371,-0.050876785069704056,0.03634648025035858,0.045204028487205505,-0.06933320313692093,29.148080825805664,86.29619598388672,290.2449951171875,4860
0.21188685297966003,-10.203489303588867,-0.0628477931022644,0.029932396486401558,0.0354301854968071,-0.07666359096765518,28.54227066040039,86.25900268554688,290.85528564453125,4870
0.21188685297966003,-10.203489303588867,-0.0628477931022644,0.029932396486401558,0.0354301854968071,-0.07666359096765518,28.54227066040039,86.25900268554688,290.85528564453125,4880
0.18734627962112427,-10.203489303588867,-0.0867898091673851,0.010995574295520782,0.017409659922122955,-0.08338310569524765,28.1158504486084,86.23053741455078,291.28472900390625,4890
0.22086510062217712,-10.192715644836426,-0.10773907601833344,0.007941247895359993,0.009162978269159794,-0.08368854224681854,28.22480583190918,86.20970916748047,291.4627685546875,4900
0.33997663855552673,-10.155006408691406,-0.0628477931022644,-0.0064140851609408855,0.014049900695681572,-0.09651670604944229,28.079030990600586,86.14739990234375,291.60491943359375,4910
0.33997663855552673,-10.155006408691406,-0.0628477931022644,-0.0064140851609408855,0.014049900695681572,-0.09651670604944229,28.079030990600586,86.14739990234375,291.60491943359375,4920
0.3106476664543152,-10.13525390625,0.0065840547904372215,-0.016493361443281174,0.015882495790719986,-0.10048733651638031,28.07465362548828,86.080078125,291.6033935546875,4930
0.2890998423099518,-10.11669921875,0.03531447425484657,-0.013744467869400978,0.011301007121801376,-0.10293079167604446,28.027568817138672,86.04155731201172,291.6477355957031,4940
0.2687491476535797,-10.111910820007324,0.02992752194404602,-0.007941247895359993,0.007024950347840786,-0.1062905490398407,27.948352813720703,86.01026916503906,291.7102355957031,4950
0.2687491476535797,-10.111910820007324,0.02992752194404602,-0.007941247895359993,0.007024950347840786,-0.1062905490398407,27.948352813720703,86.01026916503906,291.7102355957031,4960
0.22385786473751068,-10.13405704498291,0.026336219161748886,0.0024434609804302454,0.002138028386980295,-0.10903944820165634,27.756202697753906,85.95799255371094,291.9004211425781,4970
0.18555063009262085,-10.141838073730469,-0.01975216343998909,0.007941247895359993,-0.007024950347840786,-0.10995574295520782,27.52042007446289,85.89778137207031,292.13427734375,4980
0.1388636976480484,-10.137049674987793,-0.013168109580874443,0.00733038317412138,-0.014966198243200779,-0.1062905490398407,27.423555374145508,85.8885269165039,292.23175048828125,4990
0.14065934717655182,-10.15560531616211,-0.023942016065120697,0.009162978269159794,-0.016493361443281174,-0.10720685124397278,27.18927764892578,85.83731079101563,292.46502685546875,5000
0.1215057373046875,-10.188525199890137,-0.033518824726343155,0.00366519158706069,-0.013744467869400978,-0.10506882518529892,27.08298683166504,85.81825256347656,292.5712585449219,5010
0.11133038252592087,-10.160393714904785,-0.04728548228740692,9.162978967651725E-4,-0.006719517521560192,-0.10262536257505417,26.993825912475586,85.80226135253906,292.660400390625,5020
0.1322796493768692,-10.161590576171875,-0.0077811554074287415,-0.00427605677396059,-0.003359758760780096,-0.09957103431224823,26.84757423400879,85.76122283935547,292.8053283691406,5030
5040
0.18375498056411743,-10.195708274841309,0.028730420395731926,-0.007635815534740686,0.003054326167330146,-0.09682214260101318,26.784378051757813,85.75291442871094,292.8687744140625,5050
0.21368250250816345,-10.178948402404785,-0.004788403399288654,-0.014049900695681572,0.01710422709584236,-0.09773843735456467,27.016454696655273,85.71096801757813,292.9727783203125,5060
0.21368250250816345,-10.178948402404785,-0.004788403399288654,-0.014049900695681572,0.01710422709584236,-0.09773843735456467,27.016454696655273,85.71096801757813,292.9727783203125,5070
0.22685061395168304,-10.160991668701172,-0.05446808785200119,-0.01710422709584236,0.01191187184303999,-0.10873401165008545,27.097864151000977,85.65625762939453,292.8853454589844,5080
0.22685061395168304,-10.160991668701172,-0.05446808785200119,-0.01710422709584236,0.01191187184303999,-0.10873401165008545,27.097864151000977,85.65625762939453,292.8853454589844,5090
0.2190694510936737,-10.162189483642578,-0.11312603205442429,-0.023518312722444534,0.007635815534740686,-0.11270463466644287,27.3509521484375,85.5985107421875,292.6232604980469,5100
0.2190694510936737,-10.162189483642578,-0.11312603205442429,-0.023518312722444534,0.007635815534740686,-0.11270463466644287,27.3509521484375,85.5985107421875,292.6232604980469,5110
0.2041056901216507,-10.149619102478027,-0.10833762586116791,-0.02535090781748295,0.011301007121801376,-0.10751228034496307,27.496532440185547,85.54688262939453,292.4708557128906,5120
0.21009120345115662,-10.138845443725586,-0.07661445438861847,-0.02932153269648552,0.017409659922122955,-0.1062905490398407,27.98122215270996,85.5467529296875,292.36297607421875,5130
0.22625206410884857,-10.164583206176758,-0.06344634294509888,-0.029932396486401558,0.016493361443281174,-0.11178833991289139,28.15540885925293,85.49549865722656,292.181396484375,5140
0.24779987335205078,-10.17296314239502,-0.03531447425484657,-0.029932396486401558,0.003359758760780096,-0.11270463466644287,28.271121978759766,85.48420715332031,292.06280517578125,5150
0.2561795711517334,-10.139444351196289,-0.013168109580874443,-0.029626963660120964,-0.00733038317412138,-0.10934487730264664,28.40973663330078,85.44430541992188,291.9183349609375,5160
0.26396074891090393,-10.10053825378418,-0.02992752194404602,-0.02382374368607998,-0.010995574295520782,-0.10354165732860565,28.488176345825195,85.42059326171875,291.83648681640625,5170
0.24361002445220947,-10.087369918823242,-5.985504249110818E-4,-0.020463986322283745,-0.009773843921720982,-0.10048733651638031,28.516185760498047,85.40074157714844,291.80621337890625,5180
0.22206220030784607,-10.090961456298828,-0.016759412363171577,-0.021074850112199783,-0.00733038317412138,-0.09987647086381912,28.547983169555664,85.38131713867188,291.77215576171875,5190
0.20231004059314728,-10.110713958740234,-0.07122749835252762,-0.016493361443281174,-0.007941247895359993,-0.10506882518529892,28.579931259155273,85.34465789794922,291.73638916015625,5200
0.19572599232196808,-10.138845443725586,-0.10235211998224258,-0.014355333521962166,-0.005803219974040985,-0.10690141469240189,28.631559371948242,85.3330078125,291.6828308105469,5210
0.16101007163524628,-10.15560531616211,-0.06584054976701736,-0.004886921960860491,-0.002138028386980295,-0.10537425428628922,28.54637908935547,85.29051971435547,291.7656555175781,5220
0.18914192914962769,-10.140641212463379,-0.041299980133771896,-0.0012217304902151227,-0.0064140851609408855,-0.10170906037092209,28.50249481201172,85.28316497802734,291.80963134765625,5230
0.228047713637352,-10.128071784973145,-0.010175357572734356,-0.001832595793530345,-0.001832595793530345,-0.09773843735456467,28.367511749267578,85.2457275390625,291.943603515625,5240
0.24001872539520264,-10.13525390625,0.004788403399288654,0.004581489134579897,-0.003054326167330146,-0.09651670604944229,28.265851974487305,85.2330093383789,292.04583740234375,5250
0.25019407272338867,-10.13405704498291,-0.040701430290937424,0.007635815534740686,-0.003359758760780096,-0.09010262042284012,28.0602970123291,85.19795989990234,292.2518615722656,5260
0.23822307586669922,-10.128071784973145,-0.046088382601737976,0.012217304669320583,0.0,-0.08246681094169617,27.926380157470703,85.19094848632813,292.3874816894531,5270
0.22924481332302094,-10.137049674987793,-0.06584054976701736,0.011301007121801376,-0.005192354787141085,-0.08185594528913498,27.70683479309082,85.1662826538086,292.60870361328125,5280
0.27653029561042786,-10.146626472473145,-0.10354922711849213,0.0064140851609408855,-0.007024950347840786,-0.08674286305904388,27.641462326049805,85.155517578125,292.67431640625,5290
0.29388827085494995,-10.144232749938965,-0.07302315533161163,0.01038470957428217,-0.012217304669320583,-0.08735372871160507,27.479562759399414,85.12696838378906,292.83660888671875,5300
0.2992752194404602,-10.144830703735352,-0.06823474913835526,0.017409659922122955,-0.018020525574684143,-0.08857546001672745,27.294662475585938,85.09891510009766,293.0223693847656,5310
0.29149407148361206,-10.152013778686523,-0.041299980133771896,0.020463986322283745,-0.018936822190880775,-0.0910189226269722,27.068124771118164,85.06513214111328,293.2500915527344,5320
0.2561795711517334,-10.146028518676758,-0.013168109580874443,0.02015855349600315,-0.021991148591041565,-0.09193521738052368,26.91058349609375,85.04499816894531,293.4273376464844,5330
0.19632454216480255,-10.17296314239502,-0.01496376097202301,0.015271631069481373,-0.021991148591041565,-0.09376781433820724,26.717727661132813,85.018310546875,293.6214294433594,5340
0.14784196019172668,-10.161590576171875,-0.03890577703714371,0.012828170321881771,-0.021074850112199783,-0.09865473955869675,26.57429313659668,84.997314453125,293.7657165527344,5350
0.10773907601833344,-10.187328338623047,-0.08140286058187485,0.007635815534740686,-0.026572637259960175,-0.09896016865968704,26.47247314453125,84.9778060913086,293.8677978515625,5360
0.07841010391712189,-10.195109367370605,-0.10773907601833344,0.004886921960860491,-0.018325956538319588,-0.09254608303308487,26.400436401367188,84.97339630126953,293.94073486328125,5370
0.12449848651885986,-10.176554679870605,-0.05147533491253853,0.003054326167330146,-0.007024950347840786,-0.08704829961061478,26.22439956665039,84.9446792602539,294.11767578125,5380
0.19033902883529663,-10.173561096191406,0.005985504016280174,-0.0012217304902151227,-0.005497787147760391,-0.08338310569524765,26.146352767944336,84.94359588623047,294.197021484375,5390
5400
0.21966800093650818,-10.153809547424316,-0.02274491637945175,-0.0039706239476799965,-0.0024434609804302454,-0.08704829961061478,26.052337646484375,84.92008972167969,294.2908935546875,5410
0.25498247146606445,-10.147225379943848,-0.01975216343998909,-0.006108652334660292,0.0027488935738801956,-0.08674286305904388,26.04018783569336,84.92240905761719,294.3034362792969,5420
0.3034650683403015,-10.123882293701172,-0.07841010391712189,-0.005497787147760391,0.02229658141732216,-0.08765916526317596,25.98320198059082,84.8864517211914,294.3587646484375,5430
0.3034650683403015,-10.123882293701172,-0.07841010391712189,-0.005497787147760391,0.02229658141732216,-0.08765916526317596,25.98320198059082,84.8864517211914,294.3587646484375,5440
0.314238965511322,-10.131064414978027,-0.07541735470294952,-0.004581489134579897,0.023518312722444534,-0.0910189226269722,25.948331832885742,84.86294555664063,294.3924865722656,5450
0.3124433159828186,-10.1382474899292,-0.06763619929552078,-0.00366519158706069,0.021380282938480377,-0.09865473955869675,25.93975830078125,84.8418197631836,294.399658203125,5460
0.28311434388160706,-10.146626472473145,-0.061052143573760986,-0.002138028386980295,0.014966198243200779,-0.10201449692249298,25.87302589416504,84.7902603149414,294.4637451171875,5470
0.2364274114370346,-10.152612686157227,-0.04189852997660637,-0.00366519158706069,0.003359758760780096,-0.09926560521125793,25.868974685668945,84.78443908691406,294.46746826171875,5480
0.16340427100658417,-10.171167373657227,-0.0454898327589035,-0.0024434609804302454,0.002138028386980295,-0.09896016865968704,25.796703338623047,84.75382995605469,294.5387878417969,5490
0.10833762586116791,-10.16757583618164,-0.05626374110579491,-0.003054326167330146,-0.009468411095440388,-0.10018189996480942,25.77366828918457,84.7514419555664,294.56207275390625,5500
0.10893617570400238,-10.146626472473145,-0.05027823522686958,6.108652451075613E-4,-0.02076941914856434,-0.09407325088977814,25.67719078063965,84.7271957397461,294.6585388183594,5510
0.13168109953403473,-10.137049674987793,-0.047884032130241394,0.009773843921720982,-0.02229658141732216,-0.08643743395805359,25.569379806518555,84.72274017333984,294.7679748535156,5520
0.15263035893440247,-10.111311912536621,-0.0293289702385664,0.011301007121801376,-0.030237829312682152,-0.08368854224681854,25.35704231262207,84.69355773925781,294.9820861816406,5530
0.18375498056411743,-10.096946716308594,-0.01496376097202301,0.009162978269159794,-0.039095375686883926,-0.07635815441608429,25.236909866333008,84.69015502929688,295.10418701171875,5540
0.2124854028224945,-10.089165687561035,0.005985504016280174,0.015577063895761967,-0.04245513305068016,-0.0757472887635231,25.049394607543945,84.6766357421875,295.294189453125,5550
0.17956513166427612,-10.110115051269531,0.03890577703714371,0.01924225501716137,-0.03940080851316452,-0.0806342139840126,24.875537872314453,84.66942596435547,295.4707336425781,5560
0.1430535465478897,-10.134655952453613,0.011372458189725876,0.024129176512360573,-0.02535090781748295,-0.08552113175392151,24.585763931274414,84.63910675048828,295.76373291015625,5570
0.11851298063993454,-10.143035888671875,-0.02274491637945175,0.028405234217643738,-0.023518312722444534,-0.08704829961061478,24.366680145263672,84.62505340576172,295.9859313964844,5580
0.08619125932455063,-10.146626472473145,-0.07182604819536209,0.032681290060281754,-0.019547687843441963,-0.0913243517279625,24.09972381591797,84.59915924072266,296.256103515625,5590
0.08918401598930359,-10.153809547424316,-0.10833762586116791,0.035124752670526505,-0.013133603148162365,-0.09162978827953339,23.963224411010742,84.59938049316406,296.3951416015625,5600
0.10175357013940811,-10.143633842468262,-0.08200141042470932,0.03298672288656235,-0.006719517521560192,-0.0861319974064827,23.662925720214844,84.57173156738281,296.69921875,5610
0.12988543510437012,-10.128071784973145,-0.011372458189725876,0.031154127791523933,0.0027488935738801956,-0.0858265683054924,23.466716766357422,84.56520080566406,296.898681640625,5620
0.17178396880626678,-10.129867553710938,0.02274491637945175,0.026572637259960175,0.009468411095440388,-0.08185594528913498,23.15596580505371,84.5360336303711,297.2134094238281,5630
0.16759411990642548,-10.131064414978027,0.018555063754320145,0.03084869496524334,0.01038470957428217,-0.07910704612731934,22.947738647460938,84.53076171875,297.42523193359375,5640
0.166995570063591,-10.156203269958496,0.01735796220600605,0.03481931984424591,0.006719517521560192,-0.0806342139840126,22.253896713256836,84.50017547607422,297.7856140136719,5650
0.13587094843387604,-10.180145263671875,0.004189853090792894,0.039706241339445114,9.162978967651725E-4,-0.07849618047475815,22.019962310791016,84.49547576904297,298.023681640625,5660
0.1346738487482071,-10.166977882385254,-0.018555063754320145,0.041233405470848083,-0.003054326167330146,-0.07116580009460449,21.6263427734375,84.47203063964844,298.4233703613281,5670
0.12928688526153564,-10.153809547424316,0.02693476900458336,0.04764748737215996,-0.013133603148162365,-0.07483099400997162,21.288328170776367,84.45655822753906,298.76690673828125,5680
0.1454477459192276,-10.153210639953613,0.03232172131538391,0.04948008432984352,-0.012828170321881771,-0.07849618047475815,20.920534133911133,84.43232727050781,299.1403503417969,5690
0.1364694982767105,-10.15021800994873,0.08619125932455063,0.04184427112340927,-0.004581489134579897,-0.0757472887635231,20.65690803527832,84.42620086669922,299.40869140625,5700
0.10354922711849213,-10.155006408691406,0.076015904545784,0.03695734590291977,-6.108652451075613E-4,-0.07727445662021637,20.275840759277344,84.3975830078125,299.7955017089844,5710
0.0933738648891449,-10.146626472473145,0.06464344263076782,0.036041051149368286,0.01038470957428217,-0.08918632566928864,20.015758514404297,84.37875366210938,300.0595703125,5720
0.10534487664699554,-10.144232749938965,0.08379705995321274,0.039095375686883926,0.022907447069883347,-0.09407325088977814,19.73302459716797,84.35273742675781,300.3464050292969,5730
0.11671733111143112,-10.140641212463379,0.06464344263076782,0.0403171069920063,0.021380282938480377,-0.09162978827953339,19.513025283813477,84.34113311767578,300.570068359375,5740
0.13766659796237946,-10.138845443725586,0.1215057373046875,0.04856378585100174,0.01160643994808197,-0.09010262042284012,19.121612548828125,84.30026245117188,300.9670104980469,5750
5760
0.12988543510437012,-10.1568021774292,0.181959331035614,0.04489859566092491,-9.162978967651725E-4,-0.07666359096765518,18.45433235168457,84.25638580322266,301.64520263671875,5770
0.13048399984836578,-10.180145263671875,0.17896658182144165,0.043676864355802536,0.001527163083665073,-0.07727445662021637,18.199630737304688,84.25164794921875,301.90472412109375,5780
0.1256955862045288,-10.187328338623047,0.14604631066322327,0.04734205827116966,0.004581489134579897,-0.08155050873756409,17.843992233276367,84.22429656982422,302.2660827636719,5790
0.10714052617549896,-10.160393714904785,0.13407529890537262,0.04459316283464432,0.007635815534740686,-0.07819075137376785,17.537906646728516,84.20826721191406,302.5775146484375,5800
0.0975637212395668,-10.15141487121582,0.10474632680416107,0.04214970022439957,0.00855211354792118,-0.076052725315094,17.207717895507813,84.18705749511719,302.9132995605469,5810
0.07062894850969315,-10.172364234924316,0.05267243832349777,0.04459316283464432,0.006719517521560192,-0.07696902006864548,16.87839698791504,84.16517639160156,303.24822998046875,5820
0.08140286058187485,-10.16877269744873,0.06404489278793335,0.04306599870324135,0.00427605677396059,-0.076052725315094,16.520946502685547,84.13622283935547,303.611572265625,5830
0.09935937076807022,-10.180145263671875,0.07481880486011505,0.03787364438176155,0.009162978269159794,-0.0757472887635231,16.310304641723633,84.1327133178711,303.8262939453125,5840
0.13766659796237946,-10.209474563598633,0.05626374110579491,0.029626963660120964,0.010690141469240189,-0.07788532227277756,16.065855026245117,84.10887908935547,304.0746765136719,5850
0.18495208024978638,-10.218452453613281,0.05027823522686958,0.024434609338641167,0.014966198243200779,-0.08124507963657379,15.937949180603027,84.10195922851563,304.2048645019531,5860
0.2041056901216507,-10.193313598632813,0.01735796220600605,0.013439035043120384,0.014966198243200779,-0.08246681094169617,15.822440147399902,84.0777816772461,304.32171630859375,5870
0.21308395266532898,-10.14782428741455,-0.04189852997660637,0.007635815534740686,0.009773843921720982,-0.08002334833145142,15.795731544494629,84.07549285888672,304.348876953125,5880
0.16101007163524628,-10.119093894958496,0.0035913025494664907,0.010079276748001575,0.005192354787141085,-0.08399397134780884,15.721504211425781,84.06006622314453,304.42401123046875,5890
0.1430535465478897,-10.105326652526855,0.03411737456917763,0.005192354787141085,0.0039706239476799965,-0.09346238523721695,15.696006774902344,84.04859161376953,304.4495544433594,5900
0.17657238245010376,-10.119691848754883,0.04728548228740692,0.006719517521560192,0.00427605677396059,-0.09254608303308487,15.662654876708984,84.03350067138672,304.48297119140625,5910
0.2214636504650116,-10.118494987487793,-0.009576806798577309,0.004886921960860491,-0.003359758760780096,-0.08979719132184982,15.666879653930664,84.02315521240234,304.4782409667969,5920
0.2621650993824005,-10.152013778686523,-0.05267243832349777,0.002138028386980295,-0.005497787147760391,-0.08765916526317596,15.685588836669922,84.00984954833984,304.44586181640625,5930
0.2998737692832947,-10.139444351196289,-0.06344634294509888,0.004886921960860491,-0.004581489134579897,-0.09010262042284012,15.728001594543457,83.99798583984375,304.40203857421875,5940
0.3411737382411957,-10.152612686157227,-0.07182604819536209,0.009162978269159794,-0.00427605677396059,-0.09162978827953339,15.758728981018066,83.97451782226563,304.3696594238281,5950
0.33698388934135437,-10.148422241210938,-0.07422025501728058,0.007941247895359993,-0.007635815534740686,-0.08857546001672745,15.806509017944336,83.96882629394531,304.32061767578125,5960
0.2885012924671173,-10.132261276245117,-0.053270988166332245,0.013133603148162365,-0.01038470957428217,-0.08552113175392151,15.781049728393555,83.94828033447266,304.34576416015625,5970
0.25318682193756104,-10.128670692443848,-0.017956512048840523,0.018325956538319588,-0.02168571576476097,-0.0910189226269722,15.753694534301758,83.93375396728516,304.37310791015625,5980
0.20530278980731964,-10.140042304992676,0.02214636653661728,0.018020525574684143,-0.03329215571284294,-0.096211276948452,15.716307640075684,83.91163635253906,304.4103698730469,5990
0.1735796183347702,-10.175955772399902,-0.0077811554074287415,0.01924225501716137,-0.04703662544488907,-0.09162978827953339,15.318761825561523,83.89863586425781,304.4491882324219,6000
0.16879121959209442,-10.17176628112793,-0.019153613597154617,0.01863138936460018,-0.06108652427792549,-0.08521570265293121,15.265292167663574,83.88326263427734,304.503173828125,6010
0.15741875767707825,-10.157999038696289,-0.020350715145468712,0.01771509274840355,-0.07238753139972687,-0.08643743395805359,15.239041328430176,83.87781524658203,304.52978515625,6020
0.1538274586200714,-10.132261276245117,0.0071826050989329815,0.01771509274840355,-0.07269296050071716,-0.08674286305904388,15.190235137939453,83.86138153076172,304.5789794921875,6030
0.10594342648983002,-10.119691848754883,0.040701430290937424,0.012217304669320583,-0.0656680166721344,-0.0861319974064827,15.145715713500977,83.85400390625,304.6241760253906,6040
0.08918401598930359,-10.1382474899292,0.02693476900458336,0.012217304669320583,-0.05864306539297104,-0.08765916526317596,15.09930419921875,83.84336853027344,304.6711730957031,6050
0.07422025501728058,-10.16637897491455,0.012569558806717396,0.014966198243200779,-0.05161811411380768,-0.08979719132184982,15.050333976745605,83.8365478515625,304.7209167480469,6060
0.1041477769613266,-10.17296314239502,0.015562310814857483,0.01771509274840355,-0.04856378585100174,-0.08979719132184982,14.98580551147461,83.82120513916016,304.7862548828125,6070
0.16579847037792206,-10.168174743652344,0.04369417950510979,0.014049900695681572,-0.051312681287527084,-0.08765916526317596,14.949906349182129,83.81442260742188,304.8226623535156,6080
0.1999158412218094,-10.192116737365723,0.061052143573760986,0.010995574295520782,-0.05497787147760391,-0.08735372871160507,14.92091178894043,83.79814910888672,304.8516540527344,6090
0.2106897532939911,-10.192116737365723,0.08259996026754379,0.010690141469240189,-0.052839845418930054,-0.0858265683054924,14.89271354675293,83.79122924804688,304.88018798828125,6100
0.1843535304069519,-10.1568021774292,0.09696517139673233,0.00855211354792118,-0.04734205827116966,-0.08827003091573715,14.860136985778809,83.77637481689453,304.91290283203125,6110
6120
0.15023615956306458,-10.16877269744873,0.11971008777618408,0.0012217304902151227,-0.03940080851316452,-0.09224065393209457,14.852258682250977,83.78138732910156,304.921142578125,6130
0.1041477769613266,-10.13405704498291,0.1149216815829277,0.001527163083665073,-0.03420845419168472,-0.09376781433820724,14.837769508361816,83.76102447509766,304.9351501464844,6140
0.08259996026754379,-10.153809547424316,0.08798690885305405,0.0,-0.028405234217643738,-0.09682214260101318,14.834190368652344,83.76488494873047,304.93896484375,6150
0.08858546614646912,-10.146626472473145,0.0802057534456253,-9.162978967651725E-4,-0.02535090781748295,-0.09498954564332962,14.836397171020508,83.75386047363281,304.936279296875,6160
0.10714052617549896,-10.171167373657227,0.09217676520347595,0.002138028386980295,-0.02871066704392433,-0.09865473955869675,14.837080001831055,83.74614715576172,304.935302734375,6170
0.11911153793334961,-10.15021800994873,0.11432313174009323,0.00366519158706069,-0.03390302136540413,-0.10323622822761536,14.85263442993164,83.7120361328125,304.9180908203125,6180
0.12389993667602539,-10.14902114868164,0.10773907601833344,-0.001832595793530345,-0.040622539818286896,-0.10659598559141159,14.892318725585938,83.7042465209961,304.87725830078125,6190
0.07721300423145294,-10.145429611206055,0.16160862147808075,-0.004581489134579897,-0.03634648025035858,-0.10995574295520782,14.941445350646973,83.68193054199219,304.8262023925781,6200
0.02454056777060032,-10.166977882385254,0.181959331035614,-0.013439035043120384,-0.029016099870204926,-0.11362093687057495,14.992916107177734,83.67497253417969,304.7733154296875,6210
-0.028730420395731926,-10.165780067443848,0.19213469326496124,-0.01466076634824276,-0.019547687843441963,-0.11484266817569733,15.048318862915039,83.66243743896484,304.7162170410156,6220
-0.06763619929552078,-10.173561096191406,0.2059013396501541,-0.00855211354792118,-0.013744467869400978,-0.12003502249717712,15.065314292907715,83.65177154541016,304.69842529296875,6230
-0.07661445438861847,-10.185532569885254,0.24361002445220947,-0.005803219974040985,-0.011301007121801376,-0.11972958594560623,15.064530372619629,83.63443756103516,304.69854736328125,6240
-0.11432313174009323,-10.19151782989502,0.24001872539520264,-0.004581489134579897,-0.01771509274840355,-0.11545353382825851,15.033586502075195,83.62602996826172,304.7298583984375,6250
-0.10115502029657364,-10.216657638549805,0.22385786473751068,-0.00366519158706069,-0.025656340643763542,-0.11575896292924881,15.023221015930176,83.61002349853516,304.7398681640625,6260
-0.07661445438861847,-10.205883026123047,0.2346317619085312,-0.009162978269159794,-0.02321287989616394,-0.10965031385421753,15.003077507019043,83.6077880859375,304.7603759765625,6270
-0.07182604819536209,-10.169371604919434,0.2172738015651703,-0.009773843921720982,-0.02382374368607998,-0.09957103431224823,14.977097511291504,83.60223388671875,304.7867126464844,6280
-0.05147533491253853,-10.159794807434082,0.24779987335205078,-0.0012217304902151227,-0.025045474991202354,-0.09254608303308487,14.887604713439941,83.60137939453125,304.878173828125,6290
-0.03232172131538391,-10.123882293701172,0.24600422382354736,0.005192354787141085,-0.02015855349600315,-0.08124507963657379,14.740156173706055,83.59800720214844,305.02874755859375,6300
-0.021547814831137657,-10.095749855041504,0.22744916379451752,0.005497787147760391,-0.009468411095440388,-0.07269296050071716,14.576547622680664,83.60214233398438,305.1961364746094,6310
-0.03172317147254944,-10.051457405090332,0.18375498056411743,0.013744467869400978,0.003054326167330146,-0.0705549344420433,14.35985279083252,83.59925842285156,305.41754150390625,6320
-0.03711012750864029,-10.055048942565918,0.14365209639072418,0.02076941914856434,0.012522737495601177,-0.0708603709936142,14.149520874023438,83.6026611328125,305.6326904296875,6330
-0.012569558806717396,-10.050858497619629,0.09816227108240128,0.027488935738801956,0.02382374368607998,-0.06902777403593063,13.91211223602295,83.6024169921875,305.8753662109375,6340
0.04429273307323456,-10.086173057556152,0.05925649031996727,0.030237829312682152,0.025045474991202354,-0.06811147183179855,13.693889617919922,83.60244750976563,306.0984191894531,6350
0.07781155407428741,-10.119691848754883,-0.004788403399288654,0.02626720629632473,0.029626963660120964,-0.07177666574716568,13.510708808898926,83.5987777709961,306.2855529785156,6360
0.19153612852096558,-10.159794807434082,-0.008379706181585789,0.024129176512360573,0.036651913076639175,-0.07452555745840073,13.38626766204834,83.59540557861328,306.41265869140625,6370
0.2717418968677521,-10.213664054870605,-0.0017956512747332454,0.012217304669320583,0.04764748737215996,-0.07880161702632904,13.315693855285645,83.58619689941406,306.4844665527344,6380
0.27473464608192444,-10.24000072479248,0.020350715145468712,6.108652451075613E-4,0.05711590126156807,-0.08246681094169617,13.309160232543945,83.58674621582031,306.4911804199219,6390
0.27473464608192444,-10.235212326049805,0.0071826050989329815,-9.162978967651725E-4,0.060475658625364304,-0.08399397134780884,13.30508804321289,83.58060455322266,306.4951171875,6400
0.28131869435310364,-10.231620788574219,-0.05027823522686958,-6.108652451075613E-4,0.05253441259264946,-0.08888089656829834,13.34306812286377,83.57782745361328,306.4562072753906,6410
0.2711433470249176,-10.228029251098633,-0.090979665517807,-0.001527163083665073,0.0403171069920063,-0.09315694868564606,13.411635398864746,83.57059478759766,306.3858642578125,6420
0.2819172441959381,-10.20648193359375,-0.10893617570400238,-6.108652451075613E-4,0.02871066704392433,-0.09560041129589081,13.498629570007324,83.56751251220703,306.2968444824219,6430
0.3010708689689636,-10.157999038696289,-0.06823474913835526,-0.005192354787141085,0.019853120669722557,-0.09254608303308487,13.591469764709473,83.557373046875,306.2015686035156,6440
0.31783026456832886,-10.1382474899292,-0.04249707981944084,-0.007941247895359993,0.02015855349600315,-0.09040805697441101,13.681950569152832,83.557373046875,306.10906982421875,6450
0.32202014327049255,-10.120888710021973,-0.013168109580874443,-0.004581489134579897,0.026572637259960175,-0.09773843735456467,13.770411491394043,83.54417419433594,306.0181884765625,6460
0.29628247022628784,-10.13405704498291,0.008978256024420261,-0.007024950347840786,0.02871066704392433,-0.10201449692249298,13.86307430267334,83.53655242919922,305.92315673828125,6470
6480
0.25079262256622314,-10.141240119934082,-0.002394201699644327,-0.01466076634824276,0.02779436856508255,-0.10384709388017654,13.981311798095703,83.53309631347656,305.80218505859375,6490
0.1711854189634323,-10.140641212463379,-0.0011971008498221636,-0.01191187184303999,0.019853120669722557,-0.10537425428628922,14.06892204284668,83.53704071044922,305.7127380371094,6500
0.07422025501728058,-10.105925559997559,-0.015562310814857483,-0.009468411095440388,0.003359758760780096,-0.11148291081190109,14.19257640838623,83.5175552368164,305.58563232421875,6510
0.07182604819536209,-10.116100311279297,-0.010175357572734356,-0.005192354787141085,-0.013133603148162365,-0.11209376901388168,14.263529777526855,83.52330780029297,305.5132751464844,6520
0.07182604819536209,-10.116100311279297,-0.010175357572734356,-0.005192354787141085,-0.013133603148162365,-0.11209376901388168,14.263529777526855,83.52330780029297,305.5132751464844,6530
0.12868833541870117,-10.1568021774292,0.0586579404771328,-0.0012217304902151227,-0.0354301854968071,-0.10415252298116684,14.453947067260742,83.48380279541016,305.3171691894531,6540
0.1538274586200714,-10.182539939880371,0.07182604819536209,0.001832595793530345,-0.0354301854968071,-0.1014036312699318,14.480876922607422,83.49078369140625,305.2898864746094,6550
0.1628057211637497,-10.201094627380371,0.058059390634298325,-6.108652451075613E-4,-0.03145955875515938,-0.10323622822761536,14.54038143157959,83.47760009765625,305.2285461425781,6560
0.17178396880626678,-10.20528507232666,0.06584054976701736,-0.00366519158706069,-0.02229658141732216,-0.1062905490398407,14.612334251403809,83.46702575683594,305.15460205078125,6570
0.16160862147808075,-10.222043991088867,0.06823474913835526,-0.003054326167330146,-0.021074850112199783,-0.10476338863372803,14.6699857711792,83.46049499511719,305.09539794921875,6580
0.11432313174009323,-10.181941032409668,0.08918401598930359,9.162978967651725E-4,-0.019547687843441963,-0.1062905490398407,14.703329086303711,83.44611358642578,305.060791015625,6590
0.07721300423145294,-10.159195899963379,0.12030863761901855,0.003054326167330146,-0.017409659922122955,-0.10965031385421753,14.71082878112793,83.44063568115234,305.05291748046875,6600
0.028730420395731926,-10.132261276245117,0.12210428714752197,0.0012217304902151227,-0.015577063895761967,-0.10965031385421753,14.71786880493164,83.43128967285156,305.0453796386719,6610
-0.02274491637945175,-10.123882293701172,0.10953472554683685,-0.005192354787141085,-0.0039706239476799965,-0.10934487730264664,14.735149383544922,83.42687225341797,305.02752685546875,6620
-0.01975216343998909,-10.137648582458496,0.08858546614646912,0.0012217304902151227,-0.002138028386980295,-0.11148291081190109,14.740313529968262,83.417724609375,305.02191162109375,6630
-0.03292027488350868,-10.132261276245117,0.06823474913835526,0.00366519158706069,-0.007635815534740686,-0.11209376901388168,14.73807144165039,83.41658782958984,305.024169921875,6640
-0.0071826050989329815,-10.137049674987793,0.07003039866685867,0.0039706239476799965,-0.012217304669320583,-0.10231992602348328,14.720900535583496,83.4051284790039,305.04132080078125,6650
0.03950432687997818,-10.118494987487793,0.10833762586116791,0.009468411095440388,-0.010690141469240189,-0.09346238523721695,14.656322479248047,83.4048843383789,305.10736083984375,6660
0.076015904545784,-10.131064414978027,0.14844051003456116,0.009162978269159794,-0.013439035043120384,-0.09712757170200348,14.597919464111328,83.3966064453125,305.1667785644531,6670
0.11791443079710007,-10.143633842468262,0.17956513166427612,0.00427605677396059,-0.01038470957428217,-0.09957103431224823,14.564801216125488,83.38965606689453,305.2004089355469,6680
0.14065934717655182,-10.133459091186523,0.19393034279346466,0.00427605677396059,0.001832595793530345,-0.096211276948452,14.515948295593262,83.37942504882813,305.25,6690
0.12629413604736328,-10.133459091186523,0.16579847037792206,0.009468411095440388,0.015577063895761967,-0.09987647086381912,14.456952095031738,83.37134552001953,305.31005859375,6700
0.1388636976480484,-10.160991668701172,0.06404489278793335,0.01191187184303999,0.02076941914856434,-0.1059851199388504,14.431572914123535,83.35444641113281,305.3354187011719,6710
0.14844051003456116,-10.15021800994873,0.03890577703714371,0.01191187184303999,0.02687807008624077,-0.10445795953273773,14.414963722229004,83.3494873046875,305.35223388671875,6720
0.13587094843387604,-10.14902114868164,-0.02214636653661728,0.019853120669722557,0.025656340643763542,-0.11026117950677872,14.395547866821289,83.33528900146484,305.37158203125,6730
0.11552023142576218,-10.142436981201172,-0.0035913025494664907,0.022602014243602753,0.020463986322283745,-0.11362093687057495,14.368307113647461,83.3193359375,305.3988952636719,6740
0.12988543510437012,-10.146626472473145,0.008379706181585789,0.021074850112199783,0.01771509274840355,-0.11270463466644287,14.344233512878418,83.30136108398438,305.4228820800781,6750
0.15801730751991272,-10.135852813720703,0.07182604819536209,0.01038470957428217,0.017409659922122955,-0.10812314599752426,14.339558601379395,83.29202270507813,305.4273376464844,6760
0.18315643072128296,-10.134655952453613,0.07960720360279083,0.004581489134579897,0.02168571576476097,-0.1007927656173706,14.336044311523438,83.2787094116211,305.4304504394531,6770
0.19213469326496124,-10.141240119934082,0.08738835901021957,0.0064140851609408855,0.022602014243602753,-0.09987647086381912,14.32579231262207,83.27550506591797,305.4408264160156,6780
0.21188685297966003,-10.165182113647461,0.11671733111143112,0.001832595793530345,0.015577063895761967,-0.10201449692249298,14.336743354797363,83.26660919189453,305.4293212890625,6790
0.20111294090747833,-10.192116737365723,0.11372458189725876,-0.0012217304902151227,0.012828170321881771,-0.10018189996480942,14.009581565856934,83.26104736328125,305.4111328125,6800
0.14425064623355865,-10.235212326049805,0.09277531504631042,0.005192354787141085,0.00733038317412138,-0.096211276948452,13.987699508666992,83.25578308105469,305.433349609375,6810
0.0628477931022644,-10.226832389831543,0.050876785069704056,0.008246680721640587,0.01038470957428217,-0.09773843735456467,13.953112602233887,83.25572204589844,305.46875,6820
-0.0017956512747332454,-10.217854499816895,-0.008978256024420261,0.005803219974040985,0.02535090781748295,-0.10018189996480942,13.927510261535645,83.25293731689453,305.49481201171875,6830
6840
-0.013766659423708916,-10.205883026123047,0.005985504016280174,0.00427605677396059,0.03787364438176155,-0.1010981947183609,13.902769088745117,83.26570892333984,305.52056884765625,6850
0.031124621629714966,-10.157401084899902,0.02992752194404602,-0.0027488935738801956,0.03695734590291977,-0.09804387390613556,13.895827293395996,83.27497863769531,305.5279846191406,6860
0.08858546614646912,-10.133459091186523,0.0520738884806633,-0.010995574295520782,0.03726277872920036,-0.09560041129589081,13.920344352722168,83.27909088134766,305.5030212402344,6870
0.12988543510437012,-10.120290756225586,0.033518824726343155,-0.018020525574684143,0.04214970022439957,-0.09437867999076843,13.982001304626465,83.28401947021484,305.44012451171875,6880
0.18734627962112427,-10.110115051269531,0.05267243832349777,-0.024434609338641167,0.044287730008363724,-0.09162978827953339,14.065239906311035,83.29100036621094,305.355224609375,6890
0.2645592987537384,-10.119691848754883,0.07960720360279083,-0.01924225501716137,0.051312681287527084,-0.09896016865968704,14.169875144958496,83.278564453125,305.2477722167969,6900
